#
# Results on Mon, 16 Sep 2024 09:02:09 GMT
# USER AGENT: Mozilla/5.0 (X11; Ubuntu; Linux x86_64; rv:130.0) Gecko/20100101 Firefox/130.0
# Design number was non-random = 30
#
# Columns below this comment are as follows:
# 1. Results reception time.
# 2. MD5 hash of participant's IP address.
# 3. Controller name.
# 4. Order number of item.
# 5. Inner element number.
# 6. Label.
# 7. Latin Square Group.
# 8. PennElementType.
# 9. PennElementName.
# 10. Parameter.
# 11. Value.
# 12. EventTime.
# 13. code.
# 14. Comments.
1726477329,d8504d6924602101afa696ab033395aa,PennController,4,0,instructions,NULL,PennController,2,_Trial_,Start,1726477255670,ic71cJiVwGvZMdN3bSfGqA,NULL
1726477329,d8504d6924602101afa696ab033395aa,PennController,4,0,instructions,NULL,PennController,2,_Header_,Start,1726477255670,ic71cJiVwGvZMdN3bSfGqA,NULL
1726477329,d8504d6924602101afa696ab033395aa,PennController,4,0,instructions,NULL,PennController,2,_Header_,End,1726477255671,ic71cJiVwGvZMdN3bSfGqA,NULL
1726477329,d8504d6924602101afa696ab033395aa,PennController,4,0,instructions,NULL,PennController,2,_Trial_,End,1726477257783,ic71cJiVwGvZMdN3bSfGqA,NULL
1726477329,d8504d6924602101afa696ab033395aa,PennController,5,0,start_experiment,NULL,PennController,3,_Trial_,Start,1726477257785,ic71cJiVwGvZMdN3bSfGqA,NULL
1726477329,d8504d6924602101afa696ab033395aa,PennController,5,0,start_experiment,NULL,PennController,3,_Header_,Start,1726477257785,ic71cJiVwGvZMdN3bSfGqA,NULL
1726477329,d8504d6924602101afa696ab033395aa,PennController,5,0,start_experiment,NULL,PennController,3,_Header_,End,1726477257785,ic71cJiVwGvZMdN3bSfGqA,NULL
1726477329,d8504d6924602101afa696ab033395aa,PennController,5,0,start_experiment,NULL,PennController,3,_Trial_,End,1726477260555,ic71cJiVwGvZMdN3bSfGqA,NULL
# 14. list.
# 15. item.
# 16. condition.
# 17. Comments.
1726477329,d8504d6924602101afa696ab033395aa,PennController,16,0,experiment-filler,NULL,PennController,15,_Trial_,Start,1726477260558,ic71cJiVwGvZMdN3bSfGqA,1,1007,1001,NULL
1726477329,d8504d6924602101afa696ab033395aa,PennController,16,0,experiment-filler,NULL,PennController,15,_Header_,Start,1726477260558,ic71cJiVwGvZMdN3bSfGqA,1,1007,1001,NULL
1726477329,d8504d6924602101afa696ab033395aa,PennController,16,0,experiment-filler,NULL,PennController,15,_Header_,End,1726477260558,ic71cJiVwGvZMdN3bSfGqA,1,1007,1001,NULL
# 17. Reading time.
# 18. Newline?.
# 19. Sentence (or sentence MD5).
# 20. Comments.
1726477329,d8504d6924602101afa696ab033395aa,PennController,16,0,experiment-filler,NULL,Controller-SelfPacedReadingParadigmSentence,SelfPacedReadingParadigmSentence,1,Birgit,1726477264431,ic71cJiVwGvZMdN3bSfGqA,1,1007,1001,367,0,Birgit*räumte*das Zimmer auf%2C*während*ihre Schwester*die Küche*putzte.,Any addtional parameters were appended as additional columns
1726477329,d8504d6924602101afa696ab033395aa,PennController,16,0,experiment-filler,NULL,Controller-SelfPacedReadingParadigmSentence,SelfPacedReadingParadigmSentence,2,räumte,1726477264431,ic71cJiVwGvZMdN3bSfGqA,1,1007,1001,358,0,Birgit*räumte*das Zimmer auf%2C*während*ihre Schwester*die Küche*putzte.,Any addtional parameters were appended as additional columns
1726477329,d8504d6924602101afa696ab033395aa,PennController,16,0,experiment-filler,NULL,Controller-SelfPacedReadingParadigmSentence,SelfPacedReadingParadigmSentence,3,das Zimmer auf%2C,1726477264431,ic71cJiVwGvZMdN3bSfGqA,1,1007,1001,360,0,Birgit*räumte*das Zimmer auf%2C*während*ihre Schwester*die Küche*putzte.,Any addtional parameters were appended as additional columns
1726477329,d8504d6924602101afa696ab033395aa,PennController,16,0,experiment-filler,NULL,Controller-SelfPacedReadingParadigmSentence,SelfPacedReadingParadigmSentence,4,während,1726477264431,ic71cJiVwGvZMdN3bSfGqA,1,1007,1001,353,0,Birgit*räumte*das Zimmer auf%2C*während*ihre Schwester*die Küche*putzte.,Any addtional parameters were appended as additional columns
1726477329,d8504d6924602101afa696ab033395aa,PennController,16,0,experiment-filler,NULL,Controller-SelfPacedReadingParadigmSentence,SelfPacedReadingParadigmSentence,5,ihre Schwester,1726477264431,ic71cJiVwGvZMdN3bSfGqA,1,1007,1001,362,0,Birgit*räumte*das Zimmer auf%2C*während*ihre Schwester*die Küche*putzte.,Any addtional parameters were appended as additional columns
1726477329,d8504d6924602101afa696ab033395aa,PennController,16,0,experiment-filler,NULL,Controller-SelfPacedReadingParadigmSentence,SelfPacedReadingParadigmSentence,6,die Küche,1726477264431,ic71cJiVwGvZMdN3bSfGqA,1,1007,1001,359,0,Birgit*räumte*das Zimmer auf%2C*während*ihre Schwester*die Küche*putzte.,Any addtional parameters were appended as additional columns
1726477329,d8504d6924602101afa696ab033395aa,PennController,16,0,experiment-filler,NULL,Controller-SelfPacedReadingParadigmSentence,SelfPacedReadingParadigmSentence,7,putzte.,1726477264431,ic71cJiVwGvZMdN3bSfGqA,1,1007,1001,390,0,Birgit*räumte*das Zimmer auf%2C*während*ihre Schwester*die Küche*putzte.,Any addtional parameters were appended as additional columns
# 17. Comments.
1726477329,d8504d6924602101afa696ab033395aa,PennController,16,0,experiment-filler,NULL,PennController,15,_Trial_,End,1726477264434,ic71cJiVwGvZMdN3bSfGqA,1,1007,1001,NULL
1726477329,d8504d6924602101afa696ab033395aa,PennController,10,0,experiment-filler,NULL,PennController,9,_Trial_,Start,1726477264436,ic71cJiVwGvZMdN3bSfGqA,1,1001,1001,NULL
1726477329,d8504d6924602101afa696ab033395aa,PennController,10,0,experiment-filler,NULL,PennController,9,_Header_,Start,1726477264436,ic71cJiVwGvZMdN3bSfGqA,1,1001,1001,NULL
1726477329,d8504d6924602101afa696ab033395aa,PennController,10,0,experiment-filler,NULL,PennController,9,_Header_,End,1726477264436,ic71cJiVwGvZMdN3bSfGqA,1,1001,1001,NULL
# 17. Reading time.
# 18. Newline?.
# 19. Sentence (or sentence MD5).
# 20. Comments.
1726477329,d8504d6924602101afa696ab033395aa,PennController,10,0,experiment-filler,NULL,Controller-SelfPacedReadingParadigmSentence,SelfPacedReadingParadigmSentence,1,Henrike,1726477266218,ic71cJiVwGvZMdN3bSfGqA,1,1001,1001,337,0,Henrike*fuhr*nach Brasilien.,Any addtional parameters were appended as additional columns
1726477329,d8504d6924602101afa696ab033395aa,PennController,10,0,experiment-filler,NULL,Controller-SelfPacedReadingParadigmSentence,SelfPacedReadingParadigmSentence,2,fuhr,1726477266218,ic71cJiVwGvZMdN3bSfGqA,1,1001,1001,349,0,Henrike*fuhr*nach Brasilien.,Any addtional parameters were appended as additional columns
1726477329,d8504d6924602101afa696ab033395aa,PennController,10,0,experiment-filler,NULL,Controller-SelfPacedReadingParadigmSentence,SelfPacedReadingParadigmSentence,3,nach Brasilien.,1726477266218,ic71cJiVwGvZMdN3bSfGqA,1,1001,1001,397,0,Henrike*fuhr*nach Brasilien.,Any addtional parameters were appended as additional columns
# 17. Comments.
1726477329,d8504d6924602101afa696ab033395aa,PennController,10,0,experiment-filler,NULL,Selector,answer,Selection,answer_correct,1726477268513,ic71cJiVwGvZMdN3bSfGqA,1,1001,1001,answer_correct;answer_wrong
1726477329,d8504d6924602101afa696ab033395aa,PennController,10,0,experiment-filler,NULL,PennController,9,_Trial_,End,1726477268820,ic71cJiVwGvZMdN3bSfGqA,1,1001,1001,NULL
1726477329,d8504d6924602101afa696ab033395aa,PennController,8,0,experiment-item,NULL,PennController,7,_Trial_,Start,1726477268823,ic71cJiVwGvZMdN3bSfGqA,1,3,3,NULL
1726477329,d8504d6924602101afa696ab033395aa,PennController,8,0,experiment-item,NULL,PennController,7,_Header_,Start,1726477268823,ic71cJiVwGvZMdN3bSfGqA,1,3,3,NULL
1726477329,d8504d6924602101afa696ab033395aa,PennController,8,0,experiment-item,NULL,PennController,7,_Header_,End,1726477268823,ic71cJiVwGvZMdN3bSfGqA,1,3,3,NULL
# 17. Reading time.
# 18. Newline?.
# 19. Sentence (or sentence MD5).
# 20. Comments.
1726477329,d8504d6924602101afa696ab033395aa,PennController,8,0,experiment-item,NULL,Controller-SelfPacedReadingParadigmSentence,SelfPacedReadingParadigmSentence,1,Elisa,1726477272050,ic71cJiVwGvZMdN3bSfGqA,1,3,3,381,0,Elisa*war*defensiv%2C*um*die Anwälte*aus dem Konzept*zu bringen.,Any addtional parameters were appended as additional columns
1726477329,d8504d6924602101afa696ab033395aa,PennController,8,0,experiment-item,NULL,Controller-SelfPacedReadingParadigmSentence,SelfPacedReadingParadigmSentence,2,war,1726477272050,ic71cJiVwGvZMdN3bSfGqA,1,3,3,309,0,Elisa*war*defensiv%2C*um*die Anwälte*aus dem Konzept*zu bringen.,Any addtional parameters were appended as additional columns
1726477329,d8504d6924602101afa696ab033395aa,PennController,8,0,experiment-item,NULL,Controller-SelfPacedReadingParadigmSentence,SelfPacedReadingParadigmSentence,3,defensiv%2C,1726477272050,ic71cJiVwGvZMdN3bSfGqA,1,3,3,321,0,Elisa*war*defensiv%2C*um*die Anwälte*aus dem Konzept*zu bringen.,Any addtional parameters were appended as additional columns
1726477329,d8504d6924602101afa696ab033395aa,PennController,8,0,experiment-item,NULL,Controller-SelfPacedReadingParadigmSentence,SelfPacedReadingParadigmSentence,4,um,1726477272050,ic71cJiVwGvZMdN3bSfGqA,1,3,3,378,0,Elisa*war*defensiv%2C*um*die Anwälte*aus dem Konzept*zu bringen.,Any addtional parameters were appended as additional columns
1726477329,d8504d6924602101afa696ab033395aa,PennController,8,0,experiment-item,NULL,Controller-SelfPacedReadingParadigmSentence,SelfPacedReadingParadigmSentence,5,die Anwälte,1726477272050,ic71cJiVwGvZMdN3bSfGqA,1,3,3,321,0,Elisa*war*defensiv%2C*um*die Anwälte*aus dem Konzept*zu bringen.,Any addtional parameters were appended as additional columns
1726477329,d8504d6924602101afa696ab033395aa,PennController,8,0,experiment-item,NULL,Controller-SelfPacedReadingParadigmSentence,SelfPacedReadingParadigmSentence,6,aus dem Konzept,1726477272050,ic71cJiVwGvZMdN3bSfGqA,1,3,3,329,0,Elisa*war*defensiv%2C*um*die Anwälte*aus dem Konzept*zu bringen.,Any addtional parameters were appended as additional columns
1726477329,d8504d6924602101afa696ab033395aa,PennController,8,0,experiment-item,NULL,Controller-SelfPacedReadingParadigmSentence,SelfPacedReadingParadigmSentence,7,zu bringen.,1726477272050,ic71cJiVwGvZMdN3bSfGqA,1,3,3,394,0,Elisa*war*defensiv%2C*um*die Anwälte*aus dem Konzept*zu bringen.,Any addtional parameters were appended as additional columns
# 17. Comments.
1726477329,d8504d6924602101afa696ab033395aa,PennController,8,0,experiment-item,NULL,Selector,answer,Selection,answer_correct,1726477273747,ic71cJiVwGvZMdN3bSfGqA,1,3,3,answer_wrong;answer_correct
1726477329,d8504d6924602101afa696ab033395aa,PennController,8,0,experiment-item,NULL,PennController,7,_Trial_,End,1726477274052,ic71cJiVwGvZMdN3bSfGqA,1,3,3,NULL
1726477329,d8504d6924602101afa696ab033395aa,PennController,12,0,experiment-filler,NULL,PennController,11,_Trial_,Start,1726477274055,ic71cJiVwGvZMdN3bSfGqA,1,1003,1001,NULL
1726477329,d8504d6924602101afa696ab033395aa,PennController,12,0,experiment-filler,NULL,PennController,11,_Header_,Start,1726477274055,ic71cJiVwGvZMdN3bSfGqA,1,1003,1001,NULL
1726477329,d8504d6924602101afa696ab033395aa,PennController,12,0,experiment-filler,NULL,PennController,11,_Header_,End,1726477274056,ic71cJiVwGvZMdN3bSfGqA,1,1003,1001,NULL
# 17. Reading time.
# 18. Newline?.
# 19. Sentence (or sentence MD5).
# 20. Comments.
1726477329,d8504d6924602101afa696ab033395aa,PennController,12,0,experiment-filler,NULL,Controller-SelfPacedReadingParadigmSentence,SelfPacedReadingParadigmSentence,1,Die Schüler,1726477275583,ic71cJiVwGvZMdN3bSfGqA,1,1003,1001,271,0,Die Schüler*kamen*zum Infoabend.,Any addtional parameters were appended as additional columns
1726477329,d8504d6924602101afa696ab033395aa,PennController,12,0,experiment-filler,NULL,Controller-SelfPacedReadingParadigmSentence,SelfPacedReadingParadigmSentence,2,kamen,1726477275583,ic71cJiVwGvZMdN3bSfGqA,1,1003,1001,279,0,Die Schüler*kamen*zum Infoabend.,Any addtional parameters were appended as additional columns
1726477329,d8504d6924602101afa696ab033395aa,PennController,12,0,experiment-filler,NULL,Controller-SelfPacedReadingParadigmSentence,SelfPacedReadingParadigmSentence,3,zum Infoabend.,1726477275583,ic71cJiVwGvZMdN3bSfGqA,1,1003,1001,365,0,Die Schüler*kamen*zum Infoabend.,Any addtional parameters were appended as additional columns
# 17. Comments.
1726477329,d8504d6924602101afa696ab033395aa,PennController,12,0,experiment-filler,NULL,Selector,answer,Selection,answer_wrong,1726477277811,ic71cJiVwGvZMdN3bSfGqA,1,1003,1001,answer_wrong;answer_correct
1726477329,d8504d6924602101afa696ab033395aa,PennController,12,0,experiment-filler,NULL,PennController,11,_Trial_,End,1726477279118,ic71cJiVwGvZMdN3bSfGqA,1,1003,1001,NULL
1726477329,d8504d6924602101afa696ab033395aa,PennController,11,0,experiment-filler,NULL,PennController,10,_Trial_,Start,1726477279119,ic71cJiVwGvZMdN3bSfGqA,1,1002,1001,NULL
1726477329,d8504d6924602101afa696ab033395aa,PennController,11,0,experiment-filler,NULL,PennController,10,_Header_,Start,1726477279119,ic71cJiVwGvZMdN3bSfGqA,1,1002,1001,NULL
1726477329,d8504d6924602101afa696ab033395aa,PennController,11,0,experiment-filler,NULL,PennController,10,_Header_,End,1726477279119,ic71cJiVwGvZMdN3bSfGqA,1,1002,1001,NULL
# 17. Reading time.
# 18. Newline?.
# 19. Sentence (or sentence MD5).
# 20. Comments.
1726477329,d8504d6924602101afa696ab033395aa,PennController,11,0,experiment-filler,NULL,Controller-SelfPacedReadingParadigmSentence,SelfPacedReadingParadigmSentence,1,Die Polizei,1726477281250,ic71cJiVwGvZMdN3bSfGqA,1,1002,1001,297,0,Die Polizei*bat*um Hilfe.,Any addtional parameters were appended as additional columns
1726477329,d8504d6924602101afa696ab033395aa,PennController,11,0,experiment-filler,NULL,Controller-SelfPacedReadingParadigmSentence,SelfPacedReadingParadigmSentence,2,bat,1726477281250,ic71cJiVwGvZMdN3bSfGqA,1,1002,1001,354,0,Die Polizei*bat*um Hilfe.,Any addtional parameters were appended as additional columns
1726477329,d8504d6924602101afa696ab033395aa,PennController,11,0,experiment-filler,NULL,Controller-SelfPacedReadingParadigmSentence,SelfPacedReadingParadigmSentence,3,um Hilfe.,1726477281250,ic71cJiVwGvZMdN3bSfGqA,1,1002,1001,364,0,Die Polizei*bat*um Hilfe.,Any addtional parameters were appended as additional columns
# 17. Comments.
1726477329,d8504d6924602101afa696ab033395aa,PennController,11,0,experiment-filler,NULL,PennController,10,_Trial_,End,1726477281252,ic71cJiVwGvZMdN3bSfGqA,1,1002,1001,NULL
1726477329,d8504d6924602101afa696ab033395aa,PennController,6,0,experiment-item,NULL,PennController,5,_Trial_,Start,1726477281255,ic71cJiVwGvZMdN3bSfGqA,1,1,1,NULL
1726477329,d8504d6924602101afa696ab033395aa,PennController,6,0,experiment-item,NULL,PennController,5,_Header_,Start,1726477281255,ic71cJiVwGvZMdN3bSfGqA,1,1,1,NULL
1726477329,d8504d6924602101afa696ab033395aa,PennController,6,0,experiment-item,NULL,PennController,5,_Header_,End,1726477281255,ic71cJiVwGvZMdN3bSfGqA,1,1,1,NULL
# 17. Reading time.
# 18. Newline?.
# 19. Sentence (or sentence MD5).
# 20. Comments.
1726477329,d8504d6924602101afa696ab033395aa,PennController,6,0,experiment-item,NULL,Controller-SelfPacedReadingParadigmSentence,SelfPacedReadingParadigmSentence,1,Andrea,1726477284044,ic71cJiVwGvZMdN3bSfGqA,1,1,1,229,0,Andrea*war*abweisend%2C*um*das Date*schneller*zu beenden.,Any addtional parameters were appended as additional columns
1726477329,d8504d6924602101afa696ab033395aa,PennController,6,0,experiment-item,NULL,Controller-SelfPacedReadingParadigmSentence,SelfPacedReadingParadigmSentence,2,war,1726477284044,ic71cJiVwGvZMdN3bSfGqA,1,1,1,266,0,Andrea*war*abweisend%2C*um*das Date*schneller*zu beenden.,Any addtional parameters were appended as additional columns
1726477329,d8504d6924602101afa696ab033395aa,PennController,6,0,experiment-item,NULL,Controller-SelfPacedReadingParadigmSentence,SelfPacedReadingParadigmSentence,3,abweisend%2C,1726477284044,ic71cJiVwGvZMdN3bSfGqA,1,1,1,235,0,Andrea*war*abweisend%2C*um*das Date*schneller*zu beenden.,Any addtional parameters were appended as additional columns
1726477329,d8504d6924602101afa696ab033395aa,PennController,6,0,experiment-item,NULL,Controller-SelfPacedReadingParadigmSentence,SelfPacedReadingParadigmSentence,4,um,1726477284044,ic71cJiVwGvZMdN3bSfGqA,1,1,1,242,0,Andrea*war*abweisend%2C*um*das Date*schneller*zu beenden.,Any addtional parameters were appended as additional columns
1726477329,d8504d6924602101afa696ab033395aa,PennController,6,0,experiment-item,NULL,Controller-SelfPacedReadingParadigmSentence,SelfPacedReadingParadigmSentence,5,das Date,1726477284044,ic71cJiVwGvZMdN3bSfGqA,1,1,1,246,0,Andrea*war*abweisend%2C*um*das Date*schneller*zu beenden.,Any addtional parameters were appended as additional columns
1726477329,d8504d6924602101afa696ab033395aa,PennController,6,0,experiment-item,NULL,Controller-SelfPacedReadingParadigmSentence,SelfPacedReadingParadigmSentence,6,schneller,1726477284044,ic71cJiVwGvZMdN3bSfGqA,1,1,1,460,0,Andrea*war*abweisend%2C*um*das Date*schneller*zu beenden.,Any addtional parameters were appended as additional columns
1726477329,d8504d6924602101afa696ab033395aa,PennController,6,0,experiment-item,NULL,Controller-SelfPacedReadingParadigmSentence,SelfPacedReadingParadigmSentence,7,zu beenden.,1726477284044,ic71cJiVwGvZMdN3bSfGqA,1,1,1,451,0,Andrea*war*abweisend%2C*um*das Date*schneller*zu beenden.,Any addtional parameters were appended as additional columns
# 17. Comments.
1726477329,d8504d6924602101afa696ab033395aa,PennController,6,0,experiment-item,NULL,PennController,5,_Trial_,End,1726477284049,ic71cJiVwGvZMdN3bSfGqA,1,1,1,NULL
1726477329,d8504d6924602101afa696ab033395aa,PennController,15,0,experiment-filler,NULL,PennController,14,_Trial_,Start,1726477284052,ic71cJiVwGvZMdN3bSfGqA,1,1006,1001,NULL
1726477329,d8504d6924602101afa696ab033395aa,PennController,15,0,experiment-filler,NULL,PennController,14,_Header_,Start,1726477284052,ic71cJiVwGvZMdN3bSfGqA,1,1006,1001,NULL
1726477329,d8504d6924602101afa696ab033395aa,PennController,15,0,experiment-filler,NULL,PennController,14,_Header_,End,1726477284052,ic71cJiVwGvZMdN3bSfGqA,1,1006,1001,NULL
# 17. Reading time.
# 18. Newline?.
# 19. Sentence (or sentence MD5).
# 20. Comments.
1726477329,d8504d6924602101afa696ab033395aa,PennController,15,0,experiment-filler,NULL,Controller-SelfPacedReadingParadigmSentence,SelfPacedReadingParadigmSentence,1,Bianca,1726477313617,ic71cJiVwGvZMdN3bSfGqA,1,1006,1001,284,0,Bianca*sammelte*Briefmarken%2C*bevor*sie diese*in einem Album*anordnete.,Any addtional parameters were appended as additional columns
1726477329,d8504d6924602101afa696ab033395aa,PennController,15,0,experiment-filler,NULL,Controller-SelfPacedReadingParadigmSentence,SelfPacedReadingParadigmSentence,2,sammelte,1726477313617,ic71cJiVwGvZMdN3bSfGqA,1,1006,1001,196,0,Bianca*sammelte*Briefmarken%2C*bevor*sie diese*in einem Album*anordnete.,Any addtional parameters were appended as additional columns
1726477329,d8504d6924602101afa696ab033395aa,PennController,15,0,experiment-filler,NULL,Controller-SelfPacedReadingParadigmSentence,SelfPacedReadingParadigmSentence,3,Briefmarken%2C,1726477313617,ic71cJiVwGvZMdN3bSfGqA,1,1006,1001,179,0,Bianca*sammelte*Briefmarken%2C*bevor*sie diese*in einem Album*anordnete.,Any addtional parameters were appended as additional columns
1726477329,d8504d6924602101afa696ab033395aa,PennController,15,0,experiment-filler,NULL,Controller-SelfPacedReadingParadigmSentence,SelfPacedReadingParadigmSentence,4,bevor,1726477313617,ic71cJiVwGvZMdN3bSfGqA,1,1006,1001,166,0,Bianca*sammelte*Briefmarken%2C*bevor*sie diese*in einem Album*anordnete.,Any addtional parameters were appended as additional columns
1726477329,d8504d6924602101afa696ab033395aa,PennController,15,0,experiment-filler,NULL,Controller-SelfPacedReadingParadigmSentence,SelfPacedReadingParadigmSentence,5,sie diese,1726477313617,ic71cJiVwGvZMdN3bSfGqA,1,1006,1001,156,0,Bianca*sammelte*Briefmarken%2C*bevor*sie diese*in einem Album*anordnete.,Any addtional parameters were appended as additional columns
1726477329,d8504d6924602101afa696ab033395aa,PennController,15,0,experiment-filler,NULL,Controller-SelfPacedReadingParadigmSentence,SelfPacedReadingParadigmSentence,6,in einem Album,1726477313617,ic71cJiVwGvZMdN3bSfGqA,1,1006,1001,154,0,Bianca*sammelte*Briefmarken%2C*bevor*sie diese*in einem Album*anordnete.,Any addtional parameters were appended as additional columns
1726477329,d8504d6924602101afa696ab033395aa,PennController,15,0,experiment-filler,NULL,Controller-SelfPacedReadingParadigmSentence,SelfPacedReadingParadigmSentence,7,anordnete.,1726477313617,ic71cJiVwGvZMdN3bSfGqA,1,1006,1001,192,0,Bianca*sammelte*Briefmarken%2C*bevor*sie diese*in einem Album*anordnete.,Any addtional parameters were appended as additional columns
# 17. Comments.
1726477329,d8504d6924602101afa696ab033395aa,PennController,15,0,experiment-filler,NULL,PennController,14,_Trial_,End,1726477313619,ic71cJiVwGvZMdN3bSfGqA,1,1006,1001,NULL
1726477329,d8504d6924602101afa696ab033395aa,PennController,14,0,experiment-filler,NULL,PennController,13,_Trial_,Start,1726477313622,ic71cJiVwGvZMdN3bSfGqA,1,1005,1001,NULL
1726477329,d8504d6924602101afa696ab033395aa,PennController,14,0,experiment-filler,NULL,PennController,13,_Header_,Start,1726477313622,ic71cJiVwGvZMdN3bSfGqA,1,1005,1001,NULL
1726477329,d8504d6924602101afa696ab033395aa,PennController,14,0,experiment-filler,NULL,PennController,13,_Header_,End,1726477313622,ic71cJiVwGvZMdN3bSfGqA,1,1005,1001,NULL
# 17. Reading time.
# 18. Newline?.
# 19. Sentence (or sentence MD5).
# 20. Comments.
1726477329,d8504d6924602101afa696ab033395aa,PennController,14,0,experiment-filler,NULL,Controller-SelfPacedReadingParadigmSentence,SelfPacedReadingParadigmSentence,1,Adele,1726477314635,ic71cJiVwGvZMdN3bSfGqA,1,1005,1001,176,0,Adele*wechselte*an das MIT.,Any addtional parameters were appended as additional columns
1726477329,d8504d6924602101afa696ab033395aa,PennController,14,0,experiment-filler,NULL,Controller-SelfPacedReadingParadigmSentence,SelfPacedReadingParadigmSentence,2,wechselte,1726477314635,ic71cJiVwGvZMdN3bSfGqA,1,1005,1001,170,0,Adele*wechselte*an das MIT.,Any addtional parameters were appended as additional columns
1726477329,d8504d6924602101afa696ab033395aa,PennController,14,0,experiment-filler,NULL,Controller-SelfPacedReadingParadigmSentence,SelfPacedReadingParadigmSentence,3,an das MIT.,1726477314635,ic71cJiVwGvZMdN3bSfGqA,1,1005,1001,161,0,Adele*wechselte*an das MIT.,Any addtional parameters were appended as additional columns
# 17. Comments.
1726477329,d8504d6924602101afa696ab033395aa,PennController,14,0,experiment-filler,NULL,PennController,13,_Trial_,End,1726477314637,ic71cJiVwGvZMdN3bSfGqA,1,1005,1001,NULL
1726477329,d8504d6924602101afa696ab033395aa,PennController,17,0,experiment-filler,NULL,PennController,16,_Trial_,Start,1726477314639,ic71cJiVwGvZMdN3bSfGqA,1,1008,1001,NULL
1726477329,d8504d6924602101afa696ab033395aa,PennController,17,0,experiment-filler,NULL,PennController,16,_Header_,Start,1726477314639,ic71cJiVwGvZMdN3bSfGqA,1,1008,1001,NULL
1726477329,d8504d6924602101afa696ab033395aa,PennController,17,0,experiment-filler,NULL,PennController,16,_Header_,End,1726477314639,ic71cJiVwGvZMdN3bSfGqA,1,1008,1001,NULL
# 17. Reading time.
# 18. Newline?.
# 19. Sentence (or sentence MD5).
# 20. Comments.
1726477329,d8504d6924602101afa696ab033395aa,PennController,17,0,experiment-filler,NULL,Controller-SelfPacedReadingParadigmSentence,SelfPacedReadingParadigmSentence,1,Björn,1726477316609,ic71cJiVwGvZMdN3bSfGqA,1,1008,1001,159,0,Björn*entschied sich*für einen Ferrari%2C*während*seine Freundin*einen Porsche*wollte.,Any addtional parameters were appended as additional columns
1726477329,d8504d6924602101afa696ab033395aa,PennController,17,0,experiment-filler,NULL,Controller-SelfPacedReadingParadigmSentence,SelfPacedReadingParadigmSentence,2,entschied sich,1726477316609,ic71cJiVwGvZMdN3bSfGqA,1,1008,1001,154,0,Björn*entschied sich*für einen Ferrari%2C*während*seine Freundin*einen Porsche*wollte.,Any addtional parameters were appended as additional columns
1726477329,d8504d6924602101afa696ab033395aa,PennController,17,0,experiment-filler,NULL,Controller-SelfPacedReadingParadigmSentence,SelfPacedReadingParadigmSentence,3,für einen Ferrari%2C,1726477316609,ic71cJiVwGvZMdN3bSfGqA,1,1008,1001,149,0,Björn*entschied sich*für einen Ferrari%2C*während*seine Freundin*einen Porsche*wollte.,Any addtional parameters were appended as additional columns
1726477329,d8504d6924602101afa696ab033395aa,PennController,17,0,experiment-filler,NULL,Controller-SelfPacedReadingParadigmSentence,SelfPacedReadingParadigmSentence,4,während,1726477316609,ic71cJiVwGvZMdN3bSfGqA,1,1008,1001,165,0,Björn*entschied sich*für einen Ferrari%2C*während*seine Freundin*einen Porsche*wollte.,Any addtional parameters were appended as additional columns
1726477329,d8504d6924602101afa696ab033395aa,PennController,17,0,experiment-filler,NULL,Controller-SelfPacedReadingParadigmSentence,SelfPacedReadingParadigmSentence,5,seine Freundin,1726477316609,ic71cJiVwGvZMdN3bSfGqA,1,1008,1001,165,0,Björn*entschied sich*für einen Ferrari%2C*während*seine Freundin*einen Porsche*wollte.,Any addtional parameters were appended as additional columns
1726477329,d8504d6924602101afa696ab033395aa,PennController,17,0,experiment-filler,NULL,Controller-SelfPacedReadingParadigmSentence,SelfPacedReadingParadigmSentence,6,einen Porsche,1726477316609,ic71cJiVwGvZMdN3bSfGqA,1,1008,1001,173,0,Björn*entschied sich*für einen Ferrari%2C*während*seine Freundin*einen Porsche*wollte.,Any addtional parameters were appended as additional columns
1726477329,d8504d6924602101afa696ab033395aa,PennController,17,0,experiment-filler,NULL,Controller-SelfPacedReadingParadigmSentence,SelfPacedReadingParadigmSentence,7,wollte.,1726477316609,ic71cJiVwGvZMdN3bSfGqA,1,1008,1001,335,0,Björn*entschied sich*für einen Ferrari%2C*während*seine Freundin*einen Porsche*wollte.,Any addtional parameters were appended as additional columns
# 17. Comments.
1726477329,d8504d6924602101afa696ab033395aa,PennController,17,0,experiment-filler,NULL,PennController,16,_Trial_,End,1726477316611,ic71cJiVwGvZMdN3bSfGqA,1,1008,1001,NULL
1726477329,d8504d6924602101afa696ab033395aa,PennController,9,0,experiment-item,NULL,PennController,8,_Trial_,Start,1726477316613,ic71cJiVwGvZMdN3bSfGqA,1,4,4,NULL
1726477329,d8504d6924602101afa696ab033395aa,PennController,9,0,experiment-item,NULL,PennController,8,_Header_,Start,1726477316613,ic71cJiVwGvZMdN3bSfGqA,1,4,4,NULL
1726477329,d8504d6924602101afa696ab033395aa,PennController,9,0,experiment-item,NULL,PennController,8,_Header_,End,1726477316613,ic71cJiVwGvZMdN3bSfGqA,1,4,4,NULL
# 17. Reading time.
# 18. Newline?.
# 19. Sentence (or sentence MD5).
# 20. Comments.
1726477329,d8504d6924602101afa696ab033395aa,PennController,9,0,experiment-item,NULL,Controller-SelfPacedReadingParadigmSentence,SelfPacedReadingParadigmSentence,1,Jana,1726477318906,ic71cJiVwGvZMdN3bSfGqA,1,4,4,165,0,Jana*war*erwachsen%2C*um*Wodka*für die Party*zu kaufen.,Any addtional parameters were appended as additional columns
1726477329,d8504d6924602101afa696ab033395aa,PennController,9,0,experiment-item,NULL,Controller-SelfPacedReadingParadigmSentence,SelfPacedReadingParadigmSentence,2,war,1726477318906,ic71cJiVwGvZMdN3bSfGqA,1,4,4,317,0,Jana*war*erwachsen%2C*um*Wodka*für die Party*zu kaufen.,Any addtional parameters were appended as additional columns
1726477329,d8504d6924602101afa696ab033395aa,PennController,9,0,experiment-item,NULL,Controller-SelfPacedReadingParadigmSentence,SelfPacedReadingParadigmSentence,3,erwachsen%2C,1726477318906,ic71cJiVwGvZMdN3bSfGqA,1,4,4,320,0,Jana*war*erwachsen%2C*um*Wodka*für die Party*zu kaufen.,Any addtional parameters were appended as additional columns
1726477329,d8504d6924602101afa696ab033395aa,PennController,9,0,experiment-item,NULL,Controller-SelfPacedReadingParadigmSentence,SelfPacedReadingParadigmSentence,4,um,1726477318906,ic71cJiVwGvZMdN3bSfGqA,1,4,4,168,0,Jana*war*erwachsen%2C*um*Wodka*für die Party*zu kaufen.,Any addtional parameters were appended as additional columns
1726477329,d8504d6924602101afa696ab033395aa,PennController,9,0,experiment-item,NULL,Controller-SelfPacedReadingParadigmSentence,SelfPacedReadingParadigmSentence,5,Wodka,1726477318906,ic71cJiVwGvZMdN3bSfGqA,1,4,4,171,0,Jana*war*erwachsen%2C*um*Wodka*für die Party*zu kaufen.,Any addtional parameters were appended as additional columns
1726477329,d8504d6924602101afa696ab033395aa,PennController,9,0,experiment-item,NULL,Controller-SelfPacedReadingParadigmSentence,SelfPacedReadingParadigmSentence,6,für die Party,1726477318906,ic71cJiVwGvZMdN3bSfGqA,1,4,4,338,0,Jana*war*erwachsen%2C*um*Wodka*für die Party*zu kaufen.,Any addtional parameters were appended as additional columns
1726477329,d8504d6924602101afa696ab033395aa,PennController,9,0,experiment-item,NULL,Controller-SelfPacedReadingParadigmSentence,SelfPacedReadingParadigmSentence,7,zu kaufen.,1726477318906,ic71cJiVwGvZMdN3bSfGqA,1,4,4,340,0,Jana*war*erwachsen%2C*um*Wodka*für die Party*zu kaufen.,Any addtional parameters were appended as additional columns
1726477329,d8504d6924602101afa696ab033395aa,PennController,9,0,experiment-item,NULL,Controller-SelfPacedReadingParadigmSentence,SelfPacedReadingParadigmSentence,1,Jana,1726477318906,ic71cJiVwGvZMdN3bSfGqA,1,4,4,165,0,Jana*war*erwachsen%2C*um*Wodka*für die Party*zu kaufen.,Any addtional parameters were appended as additional columns
1726477329,d8504d6924602101afa696ab033395aa,PennController,9,0,experiment-item,NULL,Controller-SelfPacedReadingParadigmSentence,SelfPacedReadingParadigmSentence,2,war,1726477318906,ic71cJiVwGvZMdN3bSfGqA,1,4,4,317,0,Jana*war*erwachsen%2C*um*Wodka*für die Party*zu kaufen.,Any addtional parameters were appended as additional columns
1726477329,d8504d6924602101afa696ab033395aa,PennController,9,0,experiment-item,NULL,Controller-SelfPacedReadingParadigmSentence,SelfPacedReadingParadigmSentence,3,erwachsen%2C,1726477318906,ic71cJiVwGvZMdN3bSfGqA,1,4,4,320,0,Jana*war*erwachsen%2C*um*Wodka*für die Party*zu kaufen.,Any addtional parameters were appended as additional columns
1726477329,d8504d6924602101afa696ab033395aa,PennController,9,0,experiment-item,NULL,Controller-SelfPacedReadingParadigmSentence,SelfPacedReadingParadigmSentence,4,um,1726477318906,ic71cJiVwGvZMdN3bSfGqA,1,4,4,168,0,Jana*war*erwachsen%2C*um*Wodka*für die Party*zu kaufen.,Any addtional parameters were appended as additional columns
1726477329,d8504d6924602101afa696ab033395aa,PennController,9,0,experiment-item,NULL,Controller-SelfPacedReadingParadigmSentence,SelfPacedReadingParadigmSentence,5,Wodka,1726477318906,ic71cJiVwGvZMdN3bSfGqA,1,4,4,171,0,Jana*war*erwachsen%2C*um*Wodka*für die Party*zu kaufen.,Any addtional parameters were appended as additional columns
1726477329,d8504d6924602101afa696ab033395aa,PennController,9,0,experiment-item,NULL,Controller-SelfPacedReadingParadigmSentence,SelfPacedReadingParadigmSentence,6,für die Party,1726477318906,ic71cJiVwGvZMdN3bSfGqA,1,4,4,338,0,Jana*war*erwachsen%2C*um*Wodka*für die Party*zu kaufen.,Any addtional parameters were appended as additional columns
1726477329,d8504d6924602101afa696ab033395aa,PennController,9,0,experiment-item,NULL,Controller-SelfPacedReadingParadigmSentence,SelfPacedReadingParadigmSentence,7,zu kaufen.,1726477318906,ic71cJiVwGvZMdN3bSfGqA,1,4,4,340,0,Jana*war*erwachsen%2C*um*Wodka*für die Party*zu kaufen.,Any addtional parameters were appended as additional columns
# 17. Comments.
1726477329,d8504d6924602101afa696ab033395aa,PennController,9,0,experiment-item,NULL,Selector,answer,Selection,answer_correct,1726477320742,ic71cJiVwGvZMdN3bSfGqA,1,4,4,answer_correct;answer_wrong
1726477329,d8504d6924602101afa696ab033395aa,PennController,9,0,experiment-item,NULL,PennController,8,_Trial_,End,1726477321047,ic71cJiVwGvZMdN3bSfGqA,1,4,4,NULL
1726477329,d8504d6924602101afa696ab033395aa,PennController,19,0,experiment-filler,NULL,PennController,18,_Trial_,Start,1726477321049,ic71cJiVwGvZMdN3bSfGqA,1,1010,1001,NULL
1726477329,d8504d6924602101afa696ab033395aa,PennController,19,0,experiment-filler,NULL,PennController,18,_Header_,Start,1726477321049,ic71cJiVwGvZMdN3bSfGqA,1,1010,1001,NULL
1726477329,d8504d6924602101afa696ab033395aa,PennController,19,0,experiment-filler,NULL,PennController,18,_Header_,End,1726477321050,ic71cJiVwGvZMdN3bSfGqA,1,1010,1001,NULL
# 17. Reading time.
# 18. Newline?.
# 19. Sentence (or sentence MD5).
# 20. Comments.
1726477329,d8504d6924602101afa696ab033395aa,PennController,19,0,experiment-filler,NULL,Controller-SelfPacedReadingParadigmSentence,SelfPacedReadingParadigmSentence,1,Carolin,1726477322796,ic71cJiVwGvZMdN3bSfGqA,1,1010,1001,166,0,Carolin*setzte sich* in die Bibliothek%2C*während*es draußen*zu regnen begann.,Any addtional parameters were appended as additional columns
1726477329,d8504d6924602101afa696ab033395aa,PennController,19,0,experiment-filler,NULL,Controller-SelfPacedReadingParadigmSentence,SelfPacedReadingParadigmSentence,2,setzte sich,1726477322796,ic71cJiVwGvZMdN3bSfGqA,1,1010,1001,181,0,Carolin*setzte sich* in die Bibliothek%2C*während*es draußen*zu regnen begann.,Any addtional parameters were appended as additional columns
1726477329,d8504d6924602101afa696ab033395aa,PennController,19,0,experiment-filler,NULL,Controller-SelfPacedReadingParadigmSentence,SelfPacedReadingParadigmSentence,3, in die Bibliothek%2C,1726477322796,ic71cJiVwGvZMdN3bSfGqA,1,1010,1001,182,0,Carolin*setzte sich* in die Bibliothek%2C*während*es draußen*zu regnen begann.,Any addtional parameters were appended as additional columns
1726477329,d8504d6924602101afa696ab033395aa,PennController,19,0,experiment-filler,NULL,Controller-SelfPacedReadingParadigmSentence,SelfPacedReadingParadigmSentence,4,während,1726477322796,ic71cJiVwGvZMdN3bSfGqA,1,1010,1001,180,0,Carolin*setzte sich* in die Bibliothek%2C*während*es draußen*zu regnen begann.,Any addtional parameters were appended as additional columns
1726477329,d8504d6924602101afa696ab033395aa,PennController,19,0,experiment-filler,NULL,Controller-SelfPacedReadingParadigmSentence,SelfPacedReadingParadigmSentence,5,es draußen,1726477322796,ic71cJiVwGvZMdN3bSfGqA,1,1010,1001,186,0,Carolin*setzte sich* in die Bibliothek%2C*während*es draußen*zu regnen begann.,Any addtional parameters were appended as additional columns
1726477329,d8504d6924602101afa696ab033395aa,PennController,19,0,experiment-filler,NULL,Controller-SelfPacedReadingParadigmSentence,SelfPacedReadingParadigmSentence,6,zu regnen begann.,1726477322796,ic71cJiVwGvZMdN3bSfGqA,1,1010,1001,201,0,Carolin*setzte sich* in die Bibliothek%2C*während*es draußen*zu regnen begann.,Any addtional parameters were appended as additional columns
# 17. Comments.
1726477329,d8504d6924602101afa696ab033395aa,PennController,19,0,experiment-filler,NULL,PennController,18,_Trial_,End,1726477322798,ic71cJiVwGvZMdN3bSfGqA,1,1010,1001,NULL
1726477329,d8504d6924602101afa696ab033395aa,PennController,18,0,experiment-filler,NULL,PennController,17,_Trial_,Start,1726477322801,ic71cJiVwGvZMdN3bSfGqA,1,1009,1001,NULL
1726477329,d8504d6924602101afa696ab033395aa,PennController,18,0,experiment-filler,NULL,PennController,17,_Header_,Start,1726477322801,ic71cJiVwGvZMdN3bSfGqA,1,1009,1001,NULL
1726477329,d8504d6924602101afa696ab033395aa,PennController,18,0,experiment-filler,NULL,PennController,17,_Header_,End,1726477322801,ic71cJiVwGvZMdN3bSfGqA,1,1009,1001,NULL
# 17. Reading time.
# 18. Newline?.
# 19. Sentence (or sentence MD5).
# 20. Comments.
1726477329,d8504d6924602101afa696ab033395aa,PennController,18,0,experiment-filler,NULL,Controller-SelfPacedReadingParadigmSentence,SelfPacedReadingParadigmSentence,1,Britta,1726477324623,ic71cJiVwGvZMdN3bSfGqA,1,1009,1001,195,0,Britta*hielt sich* zurück%2C*nachdem*sie sich*beim letzten Mal*massiv beschwert hatte.,Any addtional parameters were appended as additional columns
1726477329,d8504d6924602101afa696ab033395aa,PennController,18,0,experiment-filler,NULL,Controller-SelfPacedReadingParadigmSentence,SelfPacedReadingParadigmSentence,2,hielt sich,1726477324623,ic71cJiVwGvZMdN3bSfGqA,1,1009,1001,194,0,Britta*hielt sich* zurück%2C*nachdem*sie sich*beim letzten Mal*massiv beschwert hatte.,Any addtional parameters were appended as additional columns
1726477329,d8504d6924602101afa696ab033395aa,PennController,18,0,experiment-filler,NULL,Controller-SelfPacedReadingParadigmSentence,SelfPacedReadingParadigmSentence,3, zurück%2C,1726477324623,ic71cJiVwGvZMdN3bSfGqA,1,1009,1001,198,0,Britta*hielt sich* zurück%2C*nachdem*sie sich*beim letzten Mal*massiv beschwert hatte.,Any addtional parameters were appended as additional columns
1726477329,d8504d6924602101afa696ab033395aa,PennController,18,0,experiment-filler,NULL,Controller-SelfPacedReadingParadigmSentence,SelfPacedReadingParadigmSentence,4,nachdem,1726477324623,ic71cJiVwGvZMdN3bSfGqA,1,1009,1001,182,0,Britta*hielt sich* zurück%2C*nachdem*sie sich*beim letzten Mal*massiv beschwert hatte.,Any addtional parameters were appended as additional columns
1726477329,d8504d6924602101afa696ab033395aa,PennController,18,0,experiment-filler,NULL,Controller-SelfPacedReadingParadigmSentence,SelfPacedReadingParadigmSentence,5,sie sich,1726477324623,ic71cJiVwGvZMdN3bSfGqA,1,1009,1001,168,0,Britta*hielt sich* zurück%2C*nachdem*sie sich*beim letzten Mal*massiv beschwert hatte.,Any addtional parameters were appended as additional columns
1726477329,d8504d6924602101afa696ab033395aa,PennController,18,0,experiment-filler,NULL,Controller-SelfPacedReadingParadigmSentence,SelfPacedReadingParadigmSentence,6,beim letzten Mal,1726477324623,ic71cJiVwGvZMdN3bSfGqA,1,1009,1001,183,0,Britta*hielt sich* zurück%2C*nachdem*sie sich*beim letzten Mal*massiv beschwert hatte.,Any addtional parameters were appended as additional columns
1726477329,d8504d6924602101afa696ab033395aa,PennController,18,0,experiment-filler,NULL,Controller-SelfPacedReadingParadigmSentence,SelfPacedReadingParadigmSentence,7,massiv beschwert hatte.,1726477324623,ic71cJiVwGvZMdN3bSfGqA,1,1009,1001,175,0,Britta*hielt sich* zurück%2C*nachdem*sie sich*beim letzten Mal*massiv beschwert hatte.,Any addtional parameters were appended as additional columns
# 17. Comments.
1726477329,d8504d6924602101afa696ab033395aa,PennController,18,0,experiment-filler,NULL,PennController,17,_Trial_,End,1726477324626,ic71cJiVwGvZMdN3bSfGqA,1,1009,1001,NULL
1726477329,d8504d6924602101afa696ab033395aa,PennController,13,0,experiment-filler,NULL,PennController,12,_Trial_,Start,1726477324628,ic71cJiVwGvZMdN3bSfGqA,1,1004,1001,NULL
1726477329,d8504d6924602101afa696ab033395aa,PennController,13,0,experiment-filler,NULL,PennController,12,_Header_,Start,1726477324628,ic71cJiVwGvZMdN3bSfGqA,1,1004,1001,NULL
1726477329,d8504d6924602101afa696ab033395aa,PennController,13,0,experiment-filler,NULL,PennController,12,_Header_,End,1726477324629,ic71cJiVwGvZMdN3bSfGqA,1,1004,1001,NULL
# 17. Reading time.
# 18. Newline?.
# 19. Sentence (or sentence MD5).
# 20. Comments.
1726477329,d8504d6924602101afa696ab033395aa,PennController,13,0,experiment-filler,NULL,Controller-SelfPacedReadingParadigmSentence,SelfPacedReadingParadigmSentence,1,Ingrid,1726477325732,ic71cJiVwGvZMdN3bSfGqA,1,1004,1001,180,0,Ingrid*fuhr*in die Stadt.,Any addtional parameters were appended as additional columns
1726477329,d8504d6924602101afa696ab033395aa,PennController,13,0,experiment-filler,NULL,Controller-SelfPacedReadingParadigmSentence,SelfPacedReadingParadigmSentence,2,fuhr,1726477325732,ic71cJiVwGvZMdN3bSfGqA,1,1004,1001,213,0,Ingrid*fuhr*in die Stadt.,Any addtional parameters were appended as additional columns
1726477329,d8504d6924602101afa696ab033395aa,PennController,13,0,experiment-filler,NULL,Controller-SelfPacedReadingParadigmSentence,SelfPacedReadingParadigmSentence,3,in die Stadt.,1726477325732,ic71cJiVwGvZMdN3bSfGqA,1,1004,1001,183,0,Ingrid*fuhr*in die Stadt.,Any addtional parameters were appended as additional columns
# 17. Comments.
1726477329,d8504d6924602101afa696ab033395aa,PennController,13,0,experiment-filler,NULL,PennController,12,_Trial_,End,1726477325733,ic71cJiVwGvZMdN3bSfGqA,1,1004,1001,NULL
1726477329,d8504d6924602101afa696ab033395aa,PennController,7,0,experiment-item,NULL,PennController,6,_Trial_,Start,1726477325735,ic71cJiVwGvZMdN3bSfGqA,1,2,2,NULL
1726477329,d8504d6924602101afa696ab033395aa,PennController,7,0,experiment-item,NULL,PennController,6,_Header_,Start,1726477325735,ic71cJiVwGvZMdN3bSfGqA,1,2,2,NULL
1726477329,d8504d6924602101afa696ab033395aa,PennController,7,0,experiment-item,NULL,PennController,6,_Header_,End,1726477325736,ic71cJiVwGvZMdN3bSfGqA,1,2,2,NULL
# 17. Reading time.
# 18. Newline?.
# 19. Sentence (or sentence MD5).
# 20. Comments.
1726477329,d8504d6924602101afa696ab033395aa,PennController,7,0,experiment-item,NULL,Controller-SelfPacedReadingParadigmSentence,SelfPacedReadingParadigmSentence,1,Svenja,1726477327775,ic71cJiVwGvZMdN3bSfGqA,1,2,2,209,0,Svenja*war*barbarisch%2C*um*die Wikinger*für sich*zu gewinnen.,Any addtional parameters were appended as additional columns
1726477329,d8504d6924602101afa696ab033395aa,PennController,7,0,experiment-item,NULL,Controller-SelfPacedReadingParadigmSentence,SelfPacedReadingParadigmSentence,2,war,1726477327775,ic71cJiVwGvZMdN3bSfGqA,1,2,2,215,0,Svenja*war*barbarisch%2C*um*die Wikinger*für sich*zu gewinnen.,Any addtional parameters were appended as additional columns
1726477329,d8504d6924602101afa696ab033395aa,PennController,7,0,experiment-item,NULL,Controller-SelfPacedReadingParadigmSentence,SelfPacedReadingParadigmSentence,3,barbarisch%2C,1726477327775,ic71cJiVwGvZMdN3bSfGqA,1,2,2,203,0,Svenja*war*barbarisch%2C*um*die Wikinger*für sich*zu gewinnen.,Any addtional parameters were appended as additional columns
1726477329,d8504d6924602101afa696ab033395aa,PennController,7,0,experiment-item,NULL,Controller-SelfPacedReadingParadigmSentence,SelfPacedReadingParadigmSentence,4,um,1726477327775,ic71cJiVwGvZMdN3bSfGqA,1,2,2,205,0,Svenja*war*barbarisch%2C*um*die Wikinger*für sich*zu gewinnen.,Any addtional parameters were appended as additional columns
1726477329,d8504d6924602101afa696ab033395aa,PennController,7,0,experiment-item,NULL,Controller-SelfPacedReadingParadigmSentence,SelfPacedReadingParadigmSentence,5,die Wikinger,1726477327775,ic71cJiVwGvZMdN3bSfGqA,1,2,2,208,0,Svenja*war*barbarisch%2C*um*die Wikinger*für sich*zu gewinnen.,Any addtional parameters were appended as additional columns
1726477329,d8504d6924602101afa696ab033395aa,PennController,7,0,experiment-item,NULL,Controller-SelfPacedReadingParadigmSentence,SelfPacedReadingParadigmSentence,6,für sich,1726477327775,ic71cJiVwGvZMdN3bSfGqA,1,2,2,206,0,Svenja*war*barbarisch%2C*um*die Wikinger*für sich*zu gewinnen.,Any addtional parameters were appended as additional columns
1726477329,d8504d6924602101afa696ab033395aa,PennController,7,0,experiment-item,NULL,Controller-SelfPacedReadingParadigmSentence,SelfPacedReadingParadigmSentence,7,zu gewinnen.,1726477327775,ic71cJiVwGvZMdN3bSfGqA,1,2,2,251,0,Svenja*war*barbarisch%2C*um*die Wikinger*für sich*zu gewinnen.,Any addtional parameters were appended as additional columns
# 17. Comments.
1726477329,d8504d6924602101afa696ab033395aa,PennController,7,0,experiment-item,NULL,Selector,answer,Selection,answer_correct,1726477329022,ic71cJiVwGvZMdN3bSfGqA,1,2,2,answer_correct;answer_wrong
1726477329,d8504d6924602101afa696ab033395aa,PennController,7,0,experiment-item,NULL,PennController,6,_Trial_,End,1726477329329,ic71cJiVwGvZMdN3bSfGqA,1,2,2,NULL
#
# Results on Mon, 16 Sep 2024 09:09:41 GMT
# USER AGENT: Mozilla/5.0 (X11; Ubuntu; Linux x86_64; rv:130.0) Gecko/20100101 Firefox/130.0
# Design number was non-random = 31
#
# Columns below this comment are as follows:
# 1. Results reception time.
# 2. MD5 hash of participant's IP address.
# 3. Controller name.
# 4. Order number of item.
# 5. Inner element number.
# 6. Label.
# 7. Latin Square Group.
# 8. PennElementType.
# 9. PennElementName.
# 10. Parameter.
# 11. Value.
# 12. EventTime.
# 13. code.
# 14. Comments.
1726477781,d8504d6924602101afa696ab033395aa,PennController,4,0,instructions,NULL,PennController,2,_Trial_,Start,1726477752313,dGuz6BkjcDWCZEIRwqPNrQ,NULL
1726477781,d8504d6924602101afa696ab033395aa,PennController,4,0,instructions,NULL,PennController,2,_Header_,Start,1726477752313,dGuz6BkjcDWCZEIRwqPNrQ,NULL
1726477781,d8504d6924602101afa696ab033395aa,PennController,4,0,instructions,NULL,PennController,2,_Header_,End,1726477752313,dGuz6BkjcDWCZEIRwqPNrQ,NULL
1726477781,d8504d6924602101afa696ab033395aa,PennController,4,0,instructions,NULL,PennController,2,_Trial_,End,1726477756037,dGuz6BkjcDWCZEIRwqPNrQ,NULL
1726477781,d8504d6924602101afa696ab033395aa,PennController,5,0,start_experiment,NULL,PennController,3,_Trial_,Start,1726477756038,dGuz6BkjcDWCZEIRwqPNrQ,NULL
1726477781,d8504d6924602101afa696ab033395aa,PennController,5,0,start_experiment,NULL,PennController,3,_Header_,Start,1726477756038,dGuz6BkjcDWCZEIRwqPNrQ,NULL
1726477781,d8504d6924602101afa696ab033395aa,PennController,5,0,start_experiment,NULL,PennController,3,_Header_,End,1726477756038,dGuz6BkjcDWCZEIRwqPNrQ,NULL
1726477781,d8504d6924602101afa696ab033395aa,PennController,5,0,start_experiment,NULL,PennController,3,_Trial_,End,1726477757092,dGuz6BkjcDWCZEIRwqPNrQ,NULL
# 14. list.
# 15. item.
# 16. condition.
# 17. Comments.
1726477781,d8504d6924602101afa696ab033395aa,PennController,17,0,experiment-filler,NULL,PennController,16,_Trial_,Start,1726477757093,dGuz6BkjcDWCZEIRwqPNrQ,2,1008,1001,NULL
1726477781,d8504d6924602101afa696ab033395aa,PennController,17,0,experiment-filler,NULL,PennController,16,_Header_,Start,1726477757093,dGuz6BkjcDWCZEIRwqPNrQ,2,1008,1001,NULL
1726477781,d8504d6924602101afa696ab033395aa,PennController,17,0,experiment-filler,NULL,PennController,16,_Header_,End,1726477757093,dGuz6BkjcDWCZEIRwqPNrQ,2,1008,1001,NULL
# 17. Reading time.
# 18. Newline?.
# 19. Sentence (or sentence MD5).
# 20. Comments.
1726477781,d8504d6924602101afa696ab033395aa,PennController,17,0,experiment-filler,NULL,Controller-SelfPacedReadingParadigmSentence,SelfPacedReadingParadigmSentence,1,Björn,1726477758024,dGuz6BkjcDWCZEIRwqPNrQ,2,1008,1001,31,0,Björn*entschied sich*für einen Ferrari%2C*während*seine Freundin*einen Porsche*wollte.,Any addtional parameters were appended as additional columns
1726477781,d8504d6924602101afa696ab033395aa,PennController,17,0,experiment-filler,NULL,Controller-SelfPacedReadingParadigmSentence,SelfPacedReadingParadigmSentence,2,entschied sich,1726477758024,dGuz6BkjcDWCZEIRwqPNrQ,2,1008,1001,30,0,Björn*entschied sich*für einen Ferrari%2C*während*seine Freundin*einen Porsche*wollte.,Any addtional parameters were appended as additional columns
1726477781,d8504d6924602101afa696ab033395aa,PennController,17,0,experiment-filler,NULL,Controller-SelfPacedReadingParadigmSentence,SelfPacedReadingParadigmSentence,3,für einen Ferrari%2C,1726477758024,dGuz6BkjcDWCZEIRwqPNrQ,2,1008,1001,29,0,Björn*entschied sich*für einen Ferrari%2C*während*seine Freundin*einen Porsche*wollte.,Any addtional parameters were appended as additional columns
1726477781,d8504d6924602101afa696ab033395aa,PennController,17,0,experiment-filler,NULL,Controller-SelfPacedReadingParadigmSentence,SelfPacedReadingParadigmSentence,4,während,1726477758024,dGuz6BkjcDWCZEIRwqPNrQ,2,1008,1001,31,0,Björn*entschied sich*für einen Ferrari%2C*während*seine Freundin*einen Porsche*wollte.,Any addtional parameters were appended as additional columns
1726477781,d8504d6924602101afa696ab033395aa,PennController,17,0,experiment-filler,NULL,Controller-SelfPacedReadingParadigmSentence,SelfPacedReadingParadigmSentence,5,seine Freundin,1726477758024,dGuz6BkjcDWCZEIRwqPNrQ,2,1008,1001,30,0,Björn*entschied sich*für einen Ferrari%2C*während*seine Freundin*einen Porsche*wollte.,Any addtional parameters were appended as additional columns
1726477781,d8504d6924602101afa696ab033395aa,PennController,17,0,experiment-filler,NULL,Controller-SelfPacedReadingParadigmSentence,SelfPacedReadingParadigmSentence,6,einen Porsche,1726477758024,dGuz6BkjcDWCZEIRwqPNrQ,2,1008,1001,31,0,Björn*entschied sich*für einen Ferrari%2C*während*seine Freundin*einen Porsche*wollte.,Any addtional parameters were appended as additional columns
1726477781,d8504d6924602101afa696ab033395aa,PennController,17,0,experiment-filler,NULL,Controller-SelfPacedReadingParadigmSentence,SelfPacedReadingParadigmSentence,7,wollte.,1726477758024,dGuz6BkjcDWCZEIRwqPNrQ,2,1008,1001,36,0,Björn*entschied sich*für einen Ferrari%2C*während*seine Freundin*einen Porsche*wollte.,Any addtional parameters were appended as additional columns
# 17. Comments.
1726477781,d8504d6924602101afa696ab033395aa,PennController,17,0,experiment-filler,NULL,PennController,16,_Trial_,End,1726477758028,dGuz6BkjcDWCZEIRwqPNrQ,2,1008,1001,NULL
1726477781,d8504d6924602101afa696ab033395aa,PennController,14,0,experiment-filler,NULL,PennController,13,_Trial_,Start,1726477758031,dGuz6BkjcDWCZEIRwqPNrQ,2,1005,1001,NULL
1726477781,d8504d6924602101afa696ab033395aa,PennController,14,0,experiment-filler,NULL,PennController,13,_Header_,Start,1726477758031,dGuz6BkjcDWCZEIRwqPNrQ,2,1005,1001,NULL
1726477781,d8504d6924602101afa696ab033395aa,PennController,14,0,experiment-filler,NULL,PennController,13,_Header_,End,1726477758031,dGuz6BkjcDWCZEIRwqPNrQ,2,1005,1001,NULL
# 17. Reading time.
# 18. Newline?.
# 19. Sentence (or sentence MD5).
# 20. Comments.
1726477781,d8504d6924602101afa696ab033395aa,PennController,14,0,experiment-filler,NULL,Controller-SelfPacedReadingParadigmSentence,SelfPacedReadingParadigmSentence,1,Adele,1726477759100,dGuz6BkjcDWCZEIRwqPNrQ,2,1005,1001,30,0,Adele*wechselte*an das MIT.,Any addtional parameters were appended as additional columns
1726477781,d8504d6924602101afa696ab033395aa,PennController,14,0,experiment-filler,NULL,Controller-SelfPacedReadingParadigmSentence,SelfPacedReadingParadigmSentence,2,wechselte,1726477759100,dGuz6BkjcDWCZEIRwqPNrQ,2,1005,1001,31,0,Adele*wechselte*an das MIT.,Any addtional parameters were appended as additional columns
1726477781,d8504d6924602101afa696ab033395aa,PennController,14,0,experiment-filler,NULL,Controller-SelfPacedReadingParadigmSentence,SelfPacedReadingParadigmSentence,3,an das MIT.,1726477759100,dGuz6BkjcDWCZEIRwqPNrQ,2,1005,1001,30,0,Adele*wechselte*an das MIT.,Any addtional parameters were appended as additional columns
# 17. Comments.
1726477781,d8504d6924602101afa696ab033395aa,PennController,14,0,experiment-filler,NULL,PennController,13,_Trial_,End,1726477759102,dGuz6BkjcDWCZEIRwqPNrQ,2,1005,1001,NULL
1726477781,d8504d6924602101afa696ab033395aa,PennController,19,0,experiment-filler,NULL,PennController,18,_Trial_,Start,1726477759107,dGuz6BkjcDWCZEIRwqPNrQ,2,1010,1001,NULL
1726477781,d8504d6924602101afa696ab033395aa,PennController,19,0,experiment-filler,NULL,PennController,18,_Header_,Start,1726477759107,dGuz6BkjcDWCZEIRwqPNrQ,2,1010,1001,NULL
1726477781,d8504d6924602101afa696ab033395aa,PennController,19,0,experiment-filler,NULL,PennController,18,_Header_,End,1726477759108,dGuz6BkjcDWCZEIRwqPNrQ,2,1010,1001,NULL
# 17. Reading time.
# 18. Newline?.
# 19. Sentence (or sentence MD5).
# 20. Comments.
1726477781,d8504d6924602101afa696ab033395aa,PennController,19,0,experiment-filler,NULL,Controller-SelfPacedReadingParadigmSentence,SelfPacedReadingParadigmSentence,1,Carolin,1726477760259,dGuz6BkjcDWCZEIRwqPNrQ,2,1010,1001,31,0,Carolin*setzte sich* in die Bibliothek%2C*während*es draußen*zu regnen begann.,Any addtional parameters were appended as additional columns
1726477781,d8504d6924602101afa696ab033395aa,PennController,19,0,experiment-filler,NULL,Controller-SelfPacedReadingParadigmSentence,SelfPacedReadingParadigmSentence,2,setzte sich,1726477760259,dGuz6BkjcDWCZEIRwqPNrQ,2,1010,1001,29,0,Carolin*setzte sich* in die Bibliothek%2C*während*es draußen*zu regnen begann.,Any addtional parameters were appended as additional columns
1726477781,d8504d6924602101afa696ab033395aa,PennController,19,0,experiment-filler,NULL,Controller-SelfPacedReadingParadigmSentence,SelfPacedReadingParadigmSentence,3, in die Bibliothek%2C,1726477760259,dGuz6BkjcDWCZEIRwqPNrQ,2,1010,1001,30,0,Carolin*setzte sich* in die Bibliothek%2C*während*es draußen*zu regnen begann.,Any addtional parameters were appended as additional columns
1726477781,d8504d6924602101afa696ab033395aa,PennController,19,0,experiment-filler,NULL,Controller-SelfPacedReadingParadigmSentence,SelfPacedReadingParadigmSentence,4,während,1726477760259,dGuz6BkjcDWCZEIRwqPNrQ,2,1010,1001,31,0,Carolin*setzte sich* in die Bibliothek%2C*während*es draußen*zu regnen begann.,Any addtional parameters were appended as additional columns
1726477781,d8504d6924602101afa696ab033395aa,PennController,19,0,experiment-filler,NULL,Controller-SelfPacedReadingParadigmSentence,SelfPacedReadingParadigmSentence,5,es draußen,1726477760259,dGuz6BkjcDWCZEIRwqPNrQ,2,1010,1001,30,0,Carolin*setzte sich* in die Bibliothek%2C*während*es draußen*zu regnen begann.,Any addtional parameters were appended as additional columns
1726477781,d8504d6924602101afa696ab033395aa,PennController,19,0,experiment-filler,NULL,Controller-SelfPacedReadingParadigmSentence,SelfPacedReadingParadigmSentence,6,zu regnen begann.,1726477760259,dGuz6BkjcDWCZEIRwqPNrQ,2,1010,1001,30,0,Carolin*setzte sich* in die Bibliothek%2C*während*es draußen*zu regnen begann.,Any addtional parameters were appended as additional columns
# 17. Comments.
1726477781,d8504d6924602101afa696ab033395aa,PennController,19,0,experiment-filler,NULL,PennController,18,_Trial_,End,1726477760261,dGuz6BkjcDWCZEIRwqPNrQ,2,1010,1001,NULL
1726477781,d8504d6924602101afa696ab033395aa,PennController,7,0,experiment-item,NULL,PennController,6,_Trial_,Start,1726477760265,dGuz6BkjcDWCZEIRwqPNrQ,2,2,3,NULL
1726477781,d8504d6924602101afa696ab033395aa,PennController,7,0,experiment-item,NULL,PennController,6,_Header_,Start,1726477760265,dGuz6BkjcDWCZEIRwqPNrQ,2,2,3,NULL
1726477781,d8504d6924602101afa696ab033395aa,PennController,7,0,experiment-item,NULL,PennController,6,_Header_,End,1726477760265,dGuz6BkjcDWCZEIRwqPNrQ,2,2,3,NULL
# 17. Reading time.
# 18. Newline?.
# 19. Sentence (or sentence MD5).
# 20. Comments.
1726477781,d8504d6924602101afa696ab033395aa,PennController,7,0,experiment-item,NULL,Controller-SelfPacedReadingParadigmSentence,SelfPacedReadingParadigmSentence,1,Clara,1726477761427,dGuz6BkjcDWCZEIRwqPNrQ,2,2,3,31,0,Clara*war*bescheiden%2C*um*die Stiefmutter*von sich*zu überzeugen.,Any addtional parameters were appended as additional columns
1726477781,d8504d6924602101afa696ab033395aa,PennController,7,0,experiment-item,NULL,Controller-SelfPacedReadingParadigmSentence,SelfPacedReadingParadigmSentence,2,war,1726477761427,dGuz6BkjcDWCZEIRwqPNrQ,2,2,3,30,0,Clara*war*bescheiden%2C*um*die Stiefmutter*von sich*zu überzeugen.,Any addtional parameters were appended as additional columns
1726477781,d8504d6924602101afa696ab033395aa,PennController,7,0,experiment-item,NULL,Controller-SelfPacedReadingParadigmSentence,SelfPacedReadingParadigmSentence,3,bescheiden%2C,1726477761427,dGuz6BkjcDWCZEIRwqPNrQ,2,2,3,31,0,Clara*war*bescheiden%2C*um*die Stiefmutter*von sich*zu überzeugen.,Any addtional parameters were appended as additional columns
1726477781,d8504d6924602101afa696ab033395aa,PennController,7,0,experiment-item,NULL,Controller-SelfPacedReadingParadigmSentence,SelfPacedReadingParadigmSentence,4,um,1726477761427,dGuz6BkjcDWCZEIRwqPNrQ,2,2,3,30,0,Clara*war*bescheiden%2C*um*die Stiefmutter*von sich*zu überzeugen.,Any addtional parameters were appended as additional columns
1726477781,d8504d6924602101afa696ab033395aa,PennController,7,0,experiment-item,NULL,Controller-SelfPacedReadingParadigmSentence,SelfPacedReadingParadigmSentence,5,die Stiefmutter,1726477761427,dGuz6BkjcDWCZEIRwqPNrQ,2,2,3,30,0,Clara*war*bescheiden%2C*um*die Stiefmutter*von sich*zu überzeugen.,Any addtional parameters were appended as additional columns
1726477781,d8504d6924602101afa696ab033395aa,PennController,7,0,experiment-item,NULL,Controller-SelfPacedReadingParadigmSentence,SelfPacedReadingParadigmSentence,6,von sich,1726477761427,dGuz6BkjcDWCZEIRwqPNrQ,2,2,3,30,0,Clara*war*bescheiden%2C*um*die Stiefmutter*von sich*zu überzeugen.,Any addtional parameters were appended as additional columns
1726477781,d8504d6924602101afa696ab033395aa,PennController,7,0,experiment-item,NULL,Controller-SelfPacedReadingParadigmSentence,SelfPacedReadingParadigmSentence,7,zu überzeugen.,1726477761427,dGuz6BkjcDWCZEIRwqPNrQ,2,2,3,31,0,Clara*war*bescheiden%2C*um*die Stiefmutter*von sich*zu überzeugen.,Any addtional parameters were appended as additional columns
1726477781,d8504d6924602101afa696ab033395aa,PennController,7,0,experiment-item,NULL,Controller-SelfPacedReadingParadigmSentence,SelfPacedReadingParadigmSentence,1,Clara,1726477761427,dGuz6BkjcDWCZEIRwqPNrQ,2,2,3,31,0,Clara*war*bescheiden%2C*um*die Stiefmutter*von sich*zu überzeugen.,Any addtional parameters were appended as additional columns
1726477781,d8504d6924602101afa696ab033395aa,PennController,7,0,experiment-item,NULL,Controller-SelfPacedReadingParadigmSentence,SelfPacedReadingParadigmSentence,2,war,1726477761427,dGuz6BkjcDWCZEIRwqPNrQ,2,2,3,30,0,Clara*war*bescheiden%2C*um*die Stiefmutter*von sich*zu überzeugen.,Any addtional parameters were appended as additional columns
1726477781,d8504d6924602101afa696ab033395aa,PennController,7,0,experiment-item,NULL,Controller-SelfPacedReadingParadigmSentence,SelfPacedReadingParadigmSentence,3,bescheiden%2C,1726477761427,dGuz6BkjcDWCZEIRwqPNrQ,2,2,3,31,0,Clara*war*bescheiden%2C*um*die Stiefmutter*von sich*zu überzeugen.,Any addtional parameters were appended as additional columns
1726477781,d8504d6924602101afa696ab033395aa,PennController,7,0,experiment-item,NULL,Controller-SelfPacedReadingParadigmSentence,SelfPacedReadingParadigmSentence,4,um,1726477761427,dGuz6BkjcDWCZEIRwqPNrQ,2,2,3,30,0,Clara*war*bescheiden%2C*um*die Stiefmutter*von sich*zu überzeugen.,Any addtional parameters were appended as additional columns
1726477781,d8504d6924602101afa696ab033395aa,PennController,7,0,experiment-item,NULL,Controller-SelfPacedReadingParadigmSentence,SelfPacedReadingParadigmSentence,5,die Stiefmutter,1726477761427,dGuz6BkjcDWCZEIRwqPNrQ,2,2,3,30,0,Clara*war*bescheiden%2C*um*die Stiefmutter*von sich*zu überzeugen.,Any addtional parameters were appended as additional columns
1726477781,d8504d6924602101afa696ab033395aa,PennController,7,0,experiment-item,NULL,Controller-SelfPacedReadingParadigmSentence,SelfPacedReadingParadigmSentence,6,von sich,1726477761427,dGuz6BkjcDWCZEIRwqPNrQ,2,2,3,30,0,Clara*war*bescheiden%2C*um*die Stiefmutter*von sich*zu überzeugen.,Any addtional parameters were appended as additional columns
1726477781,d8504d6924602101afa696ab033395aa,PennController,7,0,experiment-item,NULL,Controller-SelfPacedReadingParadigmSentence,SelfPacedReadingParadigmSentence,7,zu überzeugen.,1726477761427,dGuz6BkjcDWCZEIRwqPNrQ,2,2,3,31,0,Clara*war*bescheiden%2C*um*die Stiefmutter*von sich*zu überzeugen.,Any addtional parameters were appended as additional columns
1726477781,d8504d6924602101afa696ab033395aa,PennController,7,0,experiment-item,NULL,Controller-SelfPacedReadingParadigmSentence,SelfPacedReadingParadigmSentence,1,Clara,1726477761427,dGuz6BkjcDWCZEIRwqPNrQ,2,2,3,31,0,Clara*war*bescheiden%2C*um*die Stiefmutter*von sich*zu überzeugen.,Any addtional parameters were appended as additional columns
1726477781,d8504d6924602101afa696ab033395aa,PennController,7,0,experiment-item,NULL,Controller-SelfPacedReadingParadigmSentence,SelfPacedReadingParadigmSentence,2,war,1726477761427,dGuz6BkjcDWCZEIRwqPNrQ,2,2,3,30,0,Clara*war*bescheiden%2C*um*die Stiefmutter*von sich*zu überzeugen.,Any addtional parameters were appended as additional columns
1726477781,d8504d6924602101afa696ab033395aa,PennController,7,0,experiment-item,NULL,Controller-SelfPacedReadingParadigmSentence,SelfPacedReadingParadigmSentence,3,bescheiden%2C,1726477761427,dGuz6BkjcDWCZEIRwqPNrQ,2,2,3,31,0,Clara*war*bescheiden%2C*um*die Stiefmutter*von sich*zu überzeugen.,Any addtional parameters were appended as additional columns
1726477781,d8504d6924602101afa696ab033395aa,PennController,7,0,experiment-item,NULL,Controller-SelfPacedReadingParadigmSentence,SelfPacedReadingParadigmSentence,4,um,1726477761427,dGuz6BkjcDWCZEIRwqPNrQ,2,2,3,30,0,Clara*war*bescheiden%2C*um*die Stiefmutter*von sich*zu überzeugen.,Any addtional parameters were appended as additional columns
1726477781,d8504d6924602101afa696ab033395aa,PennController,7,0,experiment-item,NULL,Controller-SelfPacedReadingParadigmSentence,SelfPacedReadingParadigmSentence,5,die Stiefmutter,1726477761427,dGuz6BkjcDWCZEIRwqPNrQ,2,2,3,30,0,Clara*war*bescheiden%2C*um*die Stiefmutter*von sich*zu überzeugen.,Any addtional parameters were appended as additional columns
1726477781,d8504d6924602101afa696ab033395aa,PennController,7,0,experiment-item,NULL,Controller-SelfPacedReadingParadigmSentence,SelfPacedReadingParadigmSentence,6,von sich,1726477761427,dGuz6BkjcDWCZEIRwqPNrQ,2,2,3,30,0,Clara*war*bescheiden%2C*um*die Stiefmutter*von sich*zu überzeugen.,Any addtional parameters were appended as additional columns
1726477781,d8504d6924602101afa696ab033395aa,PennController,7,0,experiment-item,NULL,Controller-SelfPacedReadingParadigmSentence,SelfPacedReadingParadigmSentence,7,zu überzeugen.,1726477761427,dGuz6BkjcDWCZEIRwqPNrQ,2,2,3,31,0,Clara*war*bescheiden%2C*um*die Stiefmutter*von sich*zu überzeugen.,Any addtional parameters were appended as additional columns
1726477781,d8504d6924602101afa696ab033395aa,PennController,7,0,experiment-item,NULL,Controller-SelfPacedReadingParadigmSentence,SelfPacedReadingParadigmSentence,1,Clara,1726477761427,dGuz6BkjcDWCZEIRwqPNrQ,2,2,3,31,0,Clara*war*bescheiden%2C*um*die Stiefmutter*von sich*zu überzeugen.,Any addtional parameters were appended as additional columns
1726477781,d8504d6924602101afa696ab033395aa,PennController,7,0,experiment-item,NULL,Controller-SelfPacedReadingParadigmSentence,SelfPacedReadingParadigmSentence,2,war,1726477761427,dGuz6BkjcDWCZEIRwqPNrQ,2,2,3,30,0,Clara*war*bescheiden%2C*um*die Stiefmutter*von sich*zu überzeugen.,Any addtional parameters were appended as additional columns
1726477781,d8504d6924602101afa696ab033395aa,PennController,7,0,experiment-item,NULL,Controller-SelfPacedReadingParadigmSentence,SelfPacedReadingParadigmSentence,3,bescheiden%2C,1726477761427,dGuz6BkjcDWCZEIRwqPNrQ,2,2,3,31,0,Clara*war*bescheiden%2C*um*die Stiefmutter*von sich*zu überzeugen.,Any addtional parameters were appended as additional columns
1726477781,d8504d6924602101afa696ab033395aa,PennController,7,0,experiment-item,NULL,Controller-SelfPacedReadingParadigmSentence,SelfPacedReadingParadigmSentence,4,um,1726477761427,dGuz6BkjcDWCZEIRwqPNrQ,2,2,3,30,0,Clara*war*bescheiden%2C*um*die Stiefmutter*von sich*zu überzeugen.,Any addtional parameters were appended as additional columns
1726477781,d8504d6924602101afa696ab033395aa,PennController,7,0,experiment-item,NULL,Controller-SelfPacedReadingParadigmSentence,SelfPacedReadingParadigmSentence,5,die Stiefmutter,1726477761427,dGuz6BkjcDWCZEIRwqPNrQ,2,2,3,30,0,Clara*war*bescheiden%2C*um*die Stiefmutter*von sich*zu überzeugen.,Any addtional parameters were appended as additional columns
1726477781,d8504d6924602101afa696ab033395aa,PennController,7,0,experiment-item,NULL,Controller-SelfPacedReadingParadigmSentence,SelfPacedReadingParadigmSentence,6,von sich,1726477761427,dGuz6BkjcDWCZEIRwqPNrQ,2,2,3,30,0,Clara*war*bescheiden%2C*um*die Stiefmutter*von sich*zu überzeugen.,Any addtional parameters were appended as additional columns
1726477781,d8504d6924602101afa696ab033395aa,PennController,7,0,experiment-item,NULL,Controller-SelfPacedReadingParadigmSentence,SelfPacedReadingParadigmSentence,7,zu überzeugen.,1726477761427,dGuz6BkjcDWCZEIRwqPNrQ,2,2,3,31,0,Clara*war*bescheiden%2C*um*die Stiefmutter*von sich*zu überzeugen.,Any addtional parameters were appended as additional columns
1726477781,d8504d6924602101afa696ab033395aa,PennController,7,0,experiment-item,NULL,Controller-SelfPacedReadingParadigmSentence,SelfPacedReadingParadigmSentence,1,Clara,1726477761427,dGuz6BkjcDWCZEIRwqPNrQ,2,2,3,31,0,Clara*war*bescheiden%2C*um*die Stiefmutter*von sich*zu überzeugen.,Any addtional parameters were appended as additional columns
1726477781,d8504d6924602101afa696ab033395aa,PennController,7,0,experiment-item,NULL,Controller-SelfPacedReadingParadigmSentence,SelfPacedReadingParadigmSentence,2,war,1726477761427,dGuz6BkjcDWCZEIRwqPNrQ,2,2,3,30,0,Clara*war*bescheiden%2C*um*die Stiefmutter*von sich*zu überzeugen.,Any addtional parameters were appended as additional columns
1726477781,d8504d6924602101afa696ab033395aa,PennController,7,0,experiment-item,NULL,Controller-SelfPacedReadingParadigmSentence,SelfPacedReadingParadigmSentence,3,bescheiden%2C,1726477761427,dGuz6BkjcDWCZEIRwqPNrQ,2,2,3,31,0,Clara*war*bescheiden%2C*um*die Stiefmutter*von sich*zu überzeugen.,Any addtional parameters were appended as additional columns
1726477781,d8504d6924602101afa696ab033395aa,PennController,7,0,experiment-item,NULL,Controller-SelfPacedReadingParadigmSentence,SelfPacedReadingParadigmSentence,4,um,1726477761427,dGuz6BkjcDWCZEIRwqPNrQ,2,2,3,30,0,Clara*war*bescheiden%2C*um*die Stiefmutter*von sich*zu überzeugen.,Any addtional parameters were appended as additional columns
1726477781,d8504d6924602101afa696ab033395aa,PennController,7,0,experiment-item,NULL,Controller-SelfPacedReadingParadigmSentence,SelfPacedReadingParadigmSentence,5,die Stiefmutter,1726477761427,dGuz6BkjcDWCZEIRwqPNrQ,2,2,3,30,0,Clara*war*bescheiden%2C*um*die Stiefmutter*von sich*zu überzeugen.,Any addtional parameters were appended as additional columns
1726477781,d8504d6924602101afa696ab033395aa,PennController,7,0,experiment-item,NULL,Controller-SelfPacedReadingParadigmSentence,SelfPacedReadingParadigmSentence,6,von sich,1726477761427,dGuz6BkjcDWCZEIRwqPNrQ,2,2,3,30,0,Clara*war*bescheiden%2C*um*die Stiefmutter*von sich*zu überzeugen.,Any addtional parameters were appended as additional columns
1726477781,d8504d6924602101afa696ab033395aa,PennController,7,0,experiment-item,NULL,Controller-SelfPacedReadingParadigmSentence,SelfPacedReadingParadigmSentence,7,zu überzeugen.,1726477761427,dGuz6BkjcDWCZEIRwqPNrQ,2,2,3,31,0,Clara*war*bescheiden%2C*um*die Stiefmutter*von sich*zu überzeugen.,Any addtional parameters were appended as additional columns
1726477781,d8504d6924602101afa696ab033395aa,PennController,7,0,experiment-item,NULL,Controller-SelfPacedReadingParadigmSentence,SelfPacedReadingParadigmSentence,1,Clara,1726477761427,dGuz6BkjcDWCZEIRwqPNrQ,2,2,3,31,0,Clara*war*bescheiden%2C*um*die Stiefmutter*von sich*zu überzeugen.,Any addtional parameters were appended as additional columns
1726477781,d8504d6924602101afa696ab033395aa,PennController,7,0,experiment-item,NULL,Controller-SelfPacedReadingParadigmSentence,SelfPacedReadingParadigmSentence,2,war,1726477761427,dGuz6BkjcDWCZEIRwqPNrQ,2,2,3,30,0,Clara*war*bescheiden%2C*um*die Stiefmutter*von sich*zu überzeugen.,Any addtional parameters were appended as additional columns
1726477781,d8504d6924602101afa696ab033395aa,PennController,7,0,experiment-item,NULL,Controller-SelfPacedReadingParadigmSentence,SelfPacedReadingParadigmSentence,3,bescheiden%2C,1726477761427,dGuz6BkjcDWCZEIRwqPNrQ,2,2,3,31,0,Clara*war*bescheiden%2C*um*die Stiefmutter*von sich*zu überzeugen.,Any addtional parameters were appended as additional columns
1726477781,d8504d6924602101afa696ab033395aa,PennController,7,0,experiment-item,NULL,Controller-SelfPacedReadingParadigmSentence,SelfPacedReadingParadigmSentence,4,um,1726477761427,dGuz6BkjcDWCZEIRwqPNrQ,2,2,3,30,0,Clara*war*bescheiden%2C*um*die Stiefmutter*von sich*zu überzeugen.,Any addtional parameters were appended as additional columns
1726477781,d8504d6924602101afa696ab033395aa,PennController,7,0,experiment-item,NULL,Controller-SelfPacedReadingParadigmSentence,SelfPacedReadingParadigmSentence,5,die Stiefmutter,1726477761427,dGuz6BkjcDWCZEIRwqPNrQ,2,2,3,30,0,Clara*war*bescheiden%2C*um*die Stiefmutter*von sich*zu überzeugen.,Any addtional parameters were appended as additional columns
1726477781,d8504d6924602101afa696ab033395aa,PennController,7,0,experiment-item,NULL,Controller-SelfPacedReadingParadigmSentence,SelfPacedReadingParadigmSentence,6,von sich,1726477761427,dGuz6BkjcDWCZEIRwqPNrQ,2,2,3,30,0,Clara*war*bescheiden%2C*um*die Stiefmutter*von sich*zu überzeugen.,Any addtional parameters were appended as additional columns
1726477781,d8504d6924602101afa696ab033395aa,PennController,7,0,experiment-item,NULL,Controller-SelfPacedReadingParadigmSentence,SelfPacedReadingParadigmSentence,7,zu überzeugen.,1726477761427,dGuz6BkjcDWCZEIRwqPNrQ,2,2,3,31,0,Clara*war*bescheiden%2C*um*die Stiefmutter*von sich*zu überzeugen.,Any addtional parameters were appended as additional columns
1726477781,d8504d6924602101afa696ab033395aa,PennController,7,0,experiment-item,NULL,Controller-SelfPacedReadingParadigmSentence,SelfPacedReadingParadigmSentence,1,Clara,1726477761427,dGuz6BkjcDWCZEIRwqPNrQ,2,2,3,31,0,Clara*war*bescheiden%2C*um*die Stiefmutter*von sich*zu überzeugen.,Any addtional parameters were appended as additional columns
1726477781,d8504d6924602101afa696ab033395aa,PennController,7,0,experiment-item,NULL,Controller-SelfPacedReadingParadigmSentence,SelfPacedReadingParadigmSentence,2,war,1726477761427,dGuz6BkjcDWCZEIRwqPNrQ,2,2,3,30,0,Clara*war*bescheiden%2C*um*die Stiefmutter*von sich*zu überzeugen.,Any addtional parameters were appended as additional columns
1726477781,d8504d6924602101afa696ab033395aa,PennController,7,0,experiment-item,NULL,Controller-SelfPacedReadingParadigmSentence,SelfPacedReadingParadigmSentence,3,bescheiden%2C,1726477761427,dGuz6BkjcDWCZEIRwqPNrQ,2,2,3,31,0,Clara*war*bescheiden%2C*um*die Stiefmutter*von sich*zu überzeugen.,Any addtional parameters were appended as additional columns
1726477781,d8504d6924602101afa696ab033395aa,PennController,7,0,experiment-item,NULL,Controller-SelfPacedReadingParadigmSentence,SelfPacedReadingParadigmSentence,4,um,1726477761427,dGuz6BkjcDWCZEIRwqPNrQ,2,2,3,30,0,Clara*war*bescheiden%2C*um*die Stiefmutter*von sich*zu überzeugen.,Any addtional parameters were appended as additional columns
1726477781,d8504d6924602101afa696ab033395aa,PennController,7,0,experiment-item,NULL,Controller-SelfPacedReadingParadigmSentence,SelfPacedReadingParadigmSentence,5,die Stiefmutter,1726477761427,dGuz6BkjcDWCZEIRwqPNrQ,2,2,3,30,0,Clara*war*bescheiden%2C*um*die Stiefmutter*von sich*zu überzeugen.,Any addtional parameters were appended as additional columns
1726477781,d8504d6924602101afa696ab033395aa,PennController,7,0,experiment-item,NULL,Controller-SelfPacedReadingParadigmSentence,SelfPacedReadingParadigmSentence,6,von sich,1726477761427,dGuz6BkjcDWCZEIRwqPNrQ,2,2,3,30,0,Clara*war*bescheiden%2C*um*die Stiefmutter*von sich*zu überzeugen.,Any addtional parameters were appended as additional columns
1726477781,d8504d6924602101afa696ab033395aa,PennController,7,0,experiment-item,NULL,Controller-SelfPacedReadingParadigmSentence,SelfPacedReadingParadigmSentence,7,zu überzeugen.,1726477761427,dGuz6BkjcDWCZEIRwqPNrQ,2,2,3,31,0,Clara*war*bescheiden%2C*um*die Stiefmutter*von sich*zu überzeugen.,Any addtional parameters were appended as additional columns
1726477781,d8504d6924602101afa696ab033395aa,PennController,7,0,experiment-item,NULL,Controller-SelfPacedReadingParadigmSentence,SelfPacedReadingParadigmSentence,1,Clara,1726477761427,dGuz6BkjcDWCZEIRwqPNrQ,2,2,3,31,0,Clara*war*bescheiden%2C*um*die Stiefmutter*von sich*zu überzeugen.,Any addtional parameters were appended as additional columns
1726477781,d8504d6924602101afa696ab033395aa,PennController,7,0,experiment-item,NULL,Controller-SelfPacedReadingParadigmSentence,SelfPacedReadingParadigmSentence,2,war,1726477761427,dGuz6BkjcDWCZEIRwqPNrQ,2,2,3,30,0,Clara*war*bescheiden%2C*um*die Stiefmutter*von sich*zu überzeugen.,Any addtional parameters were appended as additional columns
1726477781,d8504d6924602101afa696ab033395aa,PennController,7,0,experiment-item,NULL,Controller-SelfPacedReadingParadigmSentence,SelfPacedReadingParadigmSentence,3,bescheiden%2C,1726477761427,dGuz6BkjcDWCZEIRwqPNrQ,2,2,3,31,0,Clara*war*bescheiden%2C*um*die Stiefmutter*von sich*zu überzeugen.,Any addtional parameters were appended as additional columns
1726477781,d8504d6924602101afa696ab033395aa,PennController,7,0,experiment-item,NULL,Controller-SelfPacedReadingParadigmSentence,SelfPacedReadingParadigmSentence,4,um,1726477761427,dGuz6BkjcDWCZEIRwqPNrQ,2,2,3,30,0,Clara*war*bescheiden%2C*um*die Stiefmutter*von sich*zu überzeugen.,Any addtional parameters were appended as additional columns
1726477781,d8504d6924602101afa696ab033395aa,PennController,7,0,experiment-item,NULL,Controller-SelfPacedReadingParadigmSentence,SelfPacedReadingParadigmSentence,5,die Stiefmutter,1726477761427,dGuz6BkjcDWCZEIRwqPNrQ,2,2,3,30,0,Clara*war*bescheiden%2C*um*die Stiefmutter*von sich*zu überzeugen.,Any addtional parameters were appended as additional columns
1726477781,d8504d6924602101afa696ab033395aa,PennController,7,0,experiment-item,NULL,Controller-SelfPacedReadingParadigmSentence,SelfPacedReadingParadigmSentence,6,von sich,1726477761427,dGuz6BkjcDWCZEIRwqPNrQ,2,2,3,30,0,Clara*war*bescheiden%2C*um*die Stiefmutter*von sich*zu überzeugen.,Any addtional parameters were appended as additional columns
1726477781,d8504d6924602101afa696ab033395aa,PennController,7,0,experiment-item,NULL,Controller-SelfPacedReadingParadigmSentence,SelfPacedReadingParadigmSentence,7,zu überzeugen.,1726477761427,dGuz6BkjcDWCZEIRwqPNrQ,2,2,3,31,0,Clara*war*bescheiden%2C*um*die Stiefmutter*von sich*zu überzeugen.,Any addtional parameters were appended as additional columns
# 17. Comments.
1726477781,d8504d6924602101afa696ab033395aa,PennController,7,0,experiment-item,NULL,Selector,answer,Selection,answer_wrong,1726477762478,dGuz6BkjcDWCZEIRwqPNrQ,2,2,3,answer_wrong;answer_correct
1726477781,d8504d6924602101afa696ab033395aa,PennController,7,0,experiment-item,NULL,PennController,6,_Trial_,End,1726477763787,dGuz6BkjcDWCZEIRwqPNrQ,2,2,3,NULL
1726477781,d8504d6924602101afa696ab033395aa,PennController,11,0,experiment-filler,NULL,PennController,10,_Trial_,Start,1726477763790,dGuz6BkjcDWCZEIRwqPNrQ,2,1002,1001,NULL
1726477781,d8504d6924602101afa696ab033395aa,PennController,11,0,experiment-filler,NULL,PennController,10,_Header_,Start,1726477763790,dGuz6BkjcDWCZEIRwqPNrQ,2,1002,1001,NULL
1726477781,d8504d6924602101afa696ab033395aa,PennController,11,0,experiment-filler,NULL,PennController,10,_Header_,End,1726477763791,dGuz6BkjcDWCZEIRwqPNrQ,2,1002,1001,NULL
# 17. Reading time.
# 18. Newline?.
# 19. Sentence (or sentence MD5).
# 20. Comments.
1726477781,d8504d6924602101afa696ab033395aa,PennController,11,0,experiment-filler,NULL,Controller-SelfPacedReadingParadigmSentence,SelfPacedReadingParadigmSentence,1,Die Polizei,1726477764702,dGuz6BkjcDWCZEIRwqPNrQ,2,1002,1001,30,0,Die Polizei*bat*um Hilfe.,Any addtional parameters were appended as additional columns
1726477781,d8504d6924602101afa696ab033395aa,PennController,11,0,experiment-filler,NULL,Controller-SelfPacedReadingParadigmSentence,SelfPacedReadingParadigmSentence,2,bat,1726477764702,dGuz6BkjcDWCZEIRwqPNrQ,2,1002,1001,30,0,Die Polizei*bat*um Hilfe.,Any addtional parameters were appended as additional columns
1726477781,d8504d6924602101afa696ab033395aa,PennController,11,0,experiment-filler,NULL,Controller-SelfPacedReadingParadigmSentence,SelfPacedReadingParadigmSentence,3,um Hilfe.,1726477764702,dGuz6BkjcDWCZEIRwqPNrQ,2,1002,1001,31,0,Die Polizei*bat*um Hilfe.,Any addtional parameters were appended as additional columns
# 17. Comments.
1726477781,d8504d6924602101afa696ab033395aa,PennController,11,0,experiment-filler,NULL,PennController,10,_Trial_,End,1726477764703,dGuz6BkjcDWCZEIRwqPNrQ,2,1002,1001,NULL
1726477781,d8504d6924602101afa696ab033395aa,PennController,13,0,experiment-filler,NULL,PennController,12,_Trial_,Start,1726477764705,dGuz6BkjcDWCZEIRwqPNrQ,2,1004,1001,NULL
1726477781,d8504d6924602101afa696ab033395aa,PennController,13,0,experiment-filler,NULL,PennController,12,_Header_,Start,1726477764705,dGuz6BkjcDWCZEIRwqPNrQ,2,1004,1001,NULL
1726477781,d8504d6924602101afa696ab033395aa,PennController,13,0,experiment-filler,NULL,PennController,12,_Header_,End,1726477764706,dGuz6BkjcDWCZEIRwqPNrQ,2,1004,1001,NULL
# 17. Reading time.
# 18. Newline?.
# 19. Sentence (or sentence MD5).
# 20. Comments.
1726477781,d8504d6924602101afa696ab033395aa,PennController,13,0,experiment-filler,NULL,Controller-SelfPacedReadingParadigmSentence,SelfPacedReadingParadigmSentence,1,Ingrid,1726477765735,dGuz6BkjcDWCZEIRwqPNrQ,2,1004,1001,30,0,Ingrid*fuhr*in die Stadt.,Any addtional parameters were appended as additional columns
1726477781,d8504d6924602101afa696ab033395aa,PennController,13,0,experiment-filler,NULL,Controller-SelfPacedReadingParadigmSentence,SelfPacedReadingParadigmSentence,2,fuhr,1726477765735,dGuz6BkjcDWCZEIRwqPNrQ,2,1004,1001,31,0,Ingrid*fuhr*in die Stadt.,Any addtional parameters were appended as additional columns
1726477781,d8504d6924602101afa696ab033395aa,PennController,13,0,experiment-filler,NULL,Controller-SelfPacedReadingParadigmSentence,SelfPacedReadingParadigmSentence,3,in die Stadt.,1726477765735,dGuz6BkjcDWCZEIRwqPNrQ,2,1004,1001,30,0,Ingrid*fuhr*in die Stadt.,Any addtional parameters were appended as additional columns
# 17. Comments.
1726477781,d8504d6924602101afa696ab033395aa,PennController,13,0,experiment-filler,NULL,PennController,12,_Trial_,End,1726477765736,dGuz6BkjcDWCZEIRwqPNrQ,2,1004,1001,NULL
1726477781,d8504d6924602101afa696ab033395aa,PennController,8,0,experiment-item,NULL,PennController,7,_Trial_,Start,1726477765738,dGuz6BkjcDWCZEIRwqPNrQ,2,3,4,NULL
1726477781,d8504d6924602101afa696ab033395aa,PennController,8,0,experiment-item,NULL,PennController,7,_Header_,Start,1726477765738,dGuz6BkjcDWCZEIRwqPNrQ,2,3,4,NULL
1726477781,d8504d6924602101afa696ab033395aa,PennController,8,0,experiment-item,NULL,PennController,7,_Header_,End,1726477765739,dGuz6BkjcDWCZEIRwqPNrQ,2,3,4,NULL
# 17. Reading time.
# 18. Newline?.
# 19. Sentence (or sentence MD5).
# 20. Comments.
1726477781,d8504d6924602101afa696ab033395aa,PennController,8,0,experiment-item,NULL,Controller-SelfPacedReadingParadigmSentence,SelfPacedReadingParadigmSentence,1,Hannah,1726477766840,dGuz6BkjcDWCZEIRwqPNrQ,2,3,4,30,0,Hannah*war*eigenwillig%2C*um*die Erzieher*damit*zu ärgern.,Any addtional parameters were appended as additional columns
1726477781,d8504d6924602101afa696ab033395aa,PennController,8,0,experiment-item,NULL,Controller-SelfPacedReadingParadigmSentence,SelfPacedReadingParadigmSentence,2,war,1726477766840,dGuz6BkjcDWCZEIRwqPNrQ,2,3,4,30,0,Hannah*war*eigenwillig%2C*um*die Erzieher*damit*zu ärgern.,Any addtional parameters were appended as additional columns
1726477781,d8504d6924602101afa696ab033395aa,PennController,8,0,experiment-item,NULL,Controller-SelfPacedReadingParadigmSentence,SelfPacedReadingParadigmSentence,3,eigenwillig%2C,1726477766840,dGuz6BkjcDWCZEIRwqPNrQ,2,3,4,30,0,Hannah*war*eigenwillig%2C*um*die Erzieher*damit*zu ärgern.,Any addtional parameters were appended as additional columns
1726477781,d8504d6924602101afa696ab033395aa,PennController,8,0,experiment-item,NULL,Controller-SelfPacedReadingParadigmSentence,SelfPacedReadingParadigmSentence,4,um,1726477766840,dGuz6BkjcDWCZEIRwqPNrQ,2,3,4,31,0,Hannah*war*eigenwillig%2C*um*die Erzieher*damit*zu ärgern.,Any addtional parameters were appended as additional columns
1726477781,d8504d6924602101afa696ab033395aa,PennController,8,0,experiment-item,NULL,Controller-SelfPacedReadingParadigmSentence,SelfPacedReadingParadigmSentence,5,die Erzieher,1726477766840,dGuz6BkjcDWCZEIRwqPNrQ,2,3,4,30,0,Hannah*war*eigenwillig%2C*um*die Erzieher*damit*zu ärgern.,Any addtional parameters were appended as additional columns
1726477781,d8504d6924602101afa696ab033395aa,PennController,8,0,experiment-item,NULL,Controller-SelfPacedReadingParadigmSentence,SelfPacedReadingParadigmSentence,6,damit,1726477766840,dGuz6BkjcDWCZEIRwqPNrQ,2,3,4,30,0,Hannah*war*eigenwillig%2C*um*die Erzieher*damit*zu ärgern.,Any addtional parameters were appended as additional columns
1726477781,d8504d6924602101afa696ab033395aa,PennController,8,0,experiment-item,NULL,Controller-SelfPacedReadingParadigmSentence,SelfPacedReadingParadigmSentence,7,zu ärgern.,1726477766840,dGuz6BkjcDWCZEIRwqPNrQ,2,3,4,30,0,Hannah*war*eigenwillig%2C*um*die Erzieher*damit*zu ärgern.,Any addtional parameters were appended as additional columns
# 17. Comments.
1726477781,d8504d6924602101afa696ab033395aa,PennController,8,0,experiment-item,NULL,PennController,7,_Trial_,End,1726477766842,dGuz6BkjcDWCZEIRwqPNrQ,2,3,4,NULL
1726477781,d8504d6924602101afa696ab033395aa,PennController,12,0,experiment-filler,NULL,PennController,11,_Trial_,Start,1726477766845,dGuz6BkjcDWCZEIRwqPNrQ,2,1003,1001,NULL
1726477781,d8504d6924602101afa696ab033395aa,PennController,12,0,experiment-filler,NULL,PennController,11,_Header_,Start,1726477766845,dGuz6BkjcDWCZEIRwqPNrQ,2,1003,1001,NULL
1726477781,d8504d6924602101afa696ab033395aa,PennController,12,0,experiment-filler,NULL,PennController,11,_Header_,End,1726477766845,dGuz6BkjcDWCZEIRwqPNrQ,2,1003,1001,NULL
# 17. Reading time.
# 18. Newline?.
# 19. Sentence (or sentence MD5).
# 20. Comments.
1726477781,d8504d6924602101afa696ab033395aa,PennController,12,0,experiment-filler,NULL,Controller-SelfPacedReadingParadigmSentence,SelfPacedReadingParadigmSentence,1,Die Schüler,1726477767721,dGuz6BkjcDWCZEIRwqPNrQ,2,1003,1001,30,0,Die Schüler*kamen*zum Infoabend.,Any addtional parameters were appended as additional columns
1726477781,d8504d6924602101afa696ab033395aa,PennController,12,0,experiment-filler,NULL,Controller-SelfPacedReadingParadigmSentence,SelfPacedReadingParadigmSentence,2,kamen,1726477767721,dGuz6BkjcDWCZEIRwqPNrQ,2,1003,1001,29,0,Die Schüler*kamen*zum Infoabend.,Any addtional parameters were appended as additional columns
1726477781,d8504d6924602101afa696ab033395aa,PennController,12,0,experiment-filler,NULL,Controller-SelfPacedReadingParadigmSentence,SelfPacedReadingParadigmSentence,3,zum Infoabend.,1726477767721,dGuz6BkjcDWCZEIRwqPNrQ,2,1003,1001,31,0,Die Schüler*kamen*zum Infoabend.,Any addtional parameters were appended as additional columns
1726477781,d8504d6924602101afa696ab033395aa,PennController,12,0,experiment-filler,NULL,Controller-SelfPacedReadingParadigmSentence,SelfPacedReadingParadigmSentence,1,Die Schüler,1726477767721,dGuz6BkjcDWCZEIRwqPNrQ,2,1003,1001,30,0,Die Schüler*kamen*zum Infoabend.,Any addtional parameters were appended as additional columns
1726477781,d8504d6924602101afa696ab033395aa,PennController,12,0,experiment-filler,NULL,Controller-SelfPacedReadingParadigmSentence,SelfPacedReadingParadigmSentence,2,kamen,1726477767721,dGuz6BkjcDWCZEIRwqPNrQ,2,1003,1001,29,0,Die Schüler*kamen*zum Infoabend.,Any addtional parameters were appended as additional columns
1726477781,d8504d6924602101afa696ab033395aa,PennController,12,0,experiment-filler,NULL,Controller-SelfPacedReadingParadigmSentence,SelfPacedReadingParadigmSentence,3,zum Infoabend.,1726477767721,dGuz6BkjcDWCZEIRwqPNrQ,2,1003,1001,31,0,Die Schüler*kamen*zum Infoabend.,Any addtional parameters were appended as additional columns
1726477781,d8504d6924602101afa696ab033395aa,PennController,12,0,experiment-filler,NULL,Controller-SelfPacedReadingParadigmSentence,SelfPacedReadingParadigmSentence,1,Die Schüler,1726477767721,dGuz6BkjcDWCZEIRwqPNrQ,2,1003,1001,30,0,Die Schüler*kamen*zum Infoabend.,Any addtional parameters were appended as additional columns
1726477781,d8504d6924602101afa696ab033395aa,PennController,12,0,experiment-filler,NULL,Controller-SelfPacedReadingParadigmSentence,SelfPacedReadingParadigmSentence,2,kamen,1726477767721,dGuz6BkjcDWCZEIRwqPNrQ,2,1003,1001,29,0,Die Schüler*kamen*zum Infoabend.,Any addtional parameters were appended as additional columns
1726477781,d8504d6924602101afa696ab033395aa,PennController,12,0,experiment-filler,NULL,Controller-SelfPacedReadingParadigmSentence,SelfPacedReadingParadigmSentence,3,zum Infoabend.,1726477767721,dGuz6BkjcDWCZEIRwqPNrQ,2,1003,1001,31,0,Die Schüler*kamen*zum Infoabend.,Any addtional parameters were appended as additional columns
1726477781,d8504d6924602101afa696ab033395aa,PennController,12,0,experiment-filler,NULL,Controller-SelfPacedReadingParadigmSentence,SelfPacedReadingParadigmSentence,1,Die Schüler,1726477767721,dGuz6BkjcDWCZEIRwqPNrQ,2,1003,1001,30,0,Die Schüler*kamen*zum Infoabend.,Any addtional parameters were appended as additional columns
1726477781,d8504d6924602101afa696ab033395aa,PennController,12,0,experiment-filler,NULL,Controller-SelfPacedReadingParadigmSentence,SelfPacedReadingParadigmSentence,2,kamen,1726477767721,dGuz6BkjcDWCZEIRwqPNrQ,2,1003,1001,29,0,Die Schüler*kamen*zum Infoabend.,Any addtional parameters were appended as additional columns
1726477781,d8504d6924602101afa696ab033395aa,PennController,12,0,experiment-filler,NULL,Controller-SelfPacedReadingParadigmSentence,SelfPacedReadingParadigmSentence,3,zum Infoabend.,1726477767721,dGuz6BkjcDWCZEIRwqPNrQ,2,1003,1001,31,0,Die Schüler*kamen*zum Infoabend.,Any addtional parameters were appended as additional columns
1726477781,d8504d6924602101afa696ab033395aa,PennController,12,0,experiment-filler,NULL,Controller-SelfPacedReadingParadigmSentence,SelfPacedReadingParadigmSentence,1,Die Schüler,1726477767721,dGuz6BkjcDWCZEIRwqPNrQ,2,1003,1001,30,0,Die Schüler*kamen*zum Infoabend.,Any addtional parameters were appended as additional columns
1726477781,d8504d6924602101afa696ab033395aa,PennController,12,0,experiment-filler,NULL,Controller-SelfPacedReadingParadigmSentence,SelfPacedReadingParadigmSentence,2,kamen,1726477767721,dGuz6BkjcDWCZEIRwqPNrQ,2,1003,1001,29,0,Die Schüler*kamen*zum Infoabend.,Any addtional parameters were appended as additional columns
1726477781,d8504d6924602101afa696ab033395aa,PennController,12,0,experiment-filler,NULL,Controller-SelfPacedReadingParadigmSentence,SelfPacedReadingParadigmSentence,3,zum Infoabend.,1726477767721,dGuz6BkjcDWCZEIRwqPNrQ,2,1003,1001,31,0,Die Schüler*kamen*zum Infoabend.,Any addtional parameters were appended as additional columns
1726477781,d8504d6924602101afa696ab033395aa,PennController,12,0,experiment-filler,NULL,Controller-SelfPacedReadingParadigmSentence,SelfPacedReadingParadigmSentence,1,Die Schüler,1726477767721,dGuz6BkjcDWCZEIRwqPNrQ,2,1003,1001,30,0,Die Schüler*kamen*zum Infoabend.,Any addtional parameters were appended as additional columns
1726477781,d8504d6924602101afa696ab033395aa,PennController,12,0,experiment-filler,NULL,Controller-SelfPacedReadingParadigmSentence,SelfPacedReadingParadigmSentence,2,kamen,1726477767721,dGuz6BkjcDWCZEIRwqPNrQ,2,1003,1001,29,0,Die Schüler*kamen*zum Infoabend.,Any addtional parameters were appended as additional columns
1726477781,d8504d6924602101afa696ab033395aa,PennController,12,0,experiment-filler,NULL,Controller-SelfPacedReadingParadigmSentence,SelfPacedReadingParadigmSentence,3,zum Infoabend.,1726477767721,dGuz6BkjcDWCZEIRwqPNrQ,2,1003,1001,31,0,Die Schüler*kamen*zum Infoabend.,Any addtional parameters were appended as additional columns
1726477781,d8504d6924602101afa696ab033395aa,PennController,12,0,experiment-filler,NULL,Controller-SelfPacedReadingParadigmSentence,SelfPacedReadingParadigmSentence,1,Die Schüler,1726477767721,dGuz6BkjcDWCZEIRwqPNrQ,2,1003,1001,30,0,Die Schüler*kamen*zum Infoabend.,Any addtional parameters were appended as additional columns
1726477781,d8504d6924602101afa696ab033395aa,PennController,12,0,experiment-filler,NULL,Controller-SelfPacedReadingParadigmSentence,SelfPacedReadingParadigmSentence,2,kamen,1726477767721,dGuz6BkjcDWCZEIRwqPNrQ,2,1003,1001,29,0,Die Schüler*kamen*zum Infoabend.,Any addtional parameters were appended as additional columns
1726477781,d8504d6924602101afa696ab033395aa,PennController,12,0,experiment-filler,NULL,Controller-SelfPacedReadingParadigmSentence,SelfPacedReadingParadigmSentence,3,zum Infoabend.,1726477767721,dGuz6BkjcDWCZEIRwqPNrQ,2,1003,1001,31,0,Die Schüler*kamen*zum Infoabend.,Any addtional parameters were appended as additional columns
1726477781,d8504d6924602101afa696ab033395aa,PennController,12,0,experiment-filler,NULL,Controller-SelfPacedReadingParadigmSentence,SelfPacedReadingParadigmSentence,1,Die Schüler,1726477767721,dGuz6BkjcDWCZEIRwqPNrQ,2,1003,1001,30,0,Die Schüler*kamen*zum Infoabend.,Any addtional parameters were appended as additional columns
1726477781,d8504d6924602101afa696ab033395aa,PennController,12,0,experiment-filler,NULL,Controller-SelfPacedReadingParadigmSentence,SelfPacedReadingParadigmSentence,2,kamen,1726477767721,dGuz6BkjcDWCZEIRwqPNrQ,2,1003,1001,29,0,Die Schüler*kamen*zum Infoabend.,Any addtional parameters were appended as additional columns
1726477781,d8504d6924602101afa696ab033395aa,PennController,12,0,experiment-filler,NULL,Controller-SelfPacedReadingParadigmSentence,SelfPacedReadingParadigmSentence,3,zum Infoabend.,1726477767721,dGuz6BkjcDWCZEIRwqPNrQ,2,1003,1001,31,0,Die Schüler*kamen*zum Infoabend.,Any addtional parameters were appended as additional columns
# 17. Comments.
1726477781,d8504d6924602101afa696ab033395aa,PennController,12,0,experiment-filler,NULL,Selector,answer,Selection,answer_correct,1726477768761,dGuz6BkjcDWCZEIRwqPNrQ,2,1003,1001,answer_correct;answer_wrong
1726477781,d8504d6924602101afa696ab033395aa,PennController,12,0,experiment-filler,NULL,PennController,11,_Trial_,End,1726477769064,dGuz6BkjcDWCZEIRwqPNrQ,2,1003,1001,NULL
1726477781,d8504d6924602101afa696ab033395aa,PennController,16,0,experiment-filler,NULL,PennController,15,_Trial_,Start,1726477769065,dGuz6BkjcDWCZEIRwqPNrQ,2,1007,1001,NULL
1726477781,d8504d6924602101afa696ab033395aa,PennController,16,0,experiment-filler,NULL,PennController,15,_Header_,Start,1726477769065,dGuz6BkjcDWCZEIRwqPNrQ,2,1007,1001,NULL
1726477781,d8504d6924602101afa696ab033395aa,PennController,16,0,experiment-filler,NULL,PennController,15,_Header_,End,1726477769065,dGuz6BkjcDWCZEIRwqPNrQ,2,1007,1001,NULL
# 17. Reading time.
# 18. Newline?.
# 19. Sentence (or sentence MD5).
# 20. Comments.
1726477781,d8504d6924602101afa696ab033395aa,PennController,16,0,experiment-filler,NULL,Controller-SelfPacedReadingParadigmSentence,SelfPacedReadingParadigmSentence,1,Birgit,1726477770186,dGuz6BkjcDWCZEIRwqPNrQ,2,1007,1001,30,0,Birgit*räumte*das Zimmer auf%2C*während*ihre Schwester*die Küche*putzte.,Any addtional parameters were appended as additional columns
1726477781,d8504d6924602101afa696ab033395aa,PennController,16,0,experiment-filler,NULL,Controller-SelfPacedReadingParadigmSentence,SelfPacedReadingParadigmSentence,2,räumte,1726477770186,dGuz6BkjcDWCZEIRwqPNrQ,2,1007,1001,30,0,Birgit*räumte*das Zimmer auf%2C*während*ihre Schwester*die Küche*putzte.,Any addtional parameters were appended as additional columns
1726477781,d8504d6924602101afa696ab033395aa,PennController,16,0,experiment-filler,NULL,Controller-SelfPacedReadingParadigmSentence,SelfPacedReadingParadigmSentence,3,das Zimmer auf%2C,1726477770186,dGuz6BkjcDWCZEIRwqPNrQ,2,1007,1001,30,0,Birgit*räumte*das Zimmer auf%2C*während*ihre Schwester*die Küche*putzte.,Any addtional parameters were appended as additional columns
1726477781,d8504d6924602101afa696ab033395aa,PennController,16,0,experiment-filler,NULL,Controller-SelfPacedReadingParadigmSentence,SelfPacedReadingParadigmSentence,4,während,1726477770186,dGuz6BkjcDWCZEIRwqPNrQ,2,1007,1001,30,0,Birgit*räumte*das Zimmer auf%2C*während*ihre Schwester*die Küche*putzte.,Any addtional parameters were appended as additional columns
1726477781,d8504d6924602101afa696ab033395aa,PennController,16,0,experiment-filler,NULL,Controller-SelfPacedReadingParadigmSentence,SelfPacedReadingParadigmSentence,5,ihre Schwester,1726477770186,dGuz6BkjcDWCZEIRwqPNrQ,2,1007,1001,29,0,Birgit*räumte*das Zimmer auf%2C*während*ihre Schwester*die Küche*putzte.,Any addtional parameters were appended as additional columns
1726477781,d8504d6924602101afa696ab033395aa,PennController,16,0,experiment-filler,NULL,Controller-SelfPacedReadingParadigmSentence,SelfPacedReadingParadigmSentence,6,die Küche,1726477770186,dGuz6BkjcDWCZEIRwqPNrQ,2,1007,1001,30,0,Birgit*räumte*das Zimmer auf%2C*während*ihre Schwester*die Küche*putzte.,Any addtional parameters were appended as additional columns
1726477781,d8504d6924602101afa696ab033395aa,PennController,16,0,experiment-filler,NULL,Controller-SelfPacedReadingParadigmSentence,SelfPacedReadingParadigmSentence,7,putzte.,1726477770186,dGuz6BkjcDWCZEIRwqPNrQ,2,1007,1001,31,0,Birgit*räumte*das Zimmer auf%2C*während*ihre Schwester*die Küche*putzte.,Any addtional parameters were appended as additional columns
# 17. Comments.
1726477781,d8504d6924602101afa696ab033395aa,PennController,16,0,experiment-filler,NULL,PennController,15,_Trial_,End,1726477770187,dGuz6BkjcDWCZEIRwqPNrQ,2,1007,1001,NULL
1726477781,d8504d6924602101afa696ab033395aa,PennController,15,0,experiment-filler,NULL,PennController,14,_Trial_,Start,1726477770189,dGuz6BkjcDWCZEIRwqPNrQ,2,1006,1001,NULL
1726477781,d8504d6924602101afa696ab033395aa,PennController,15,0,experiment-filler,NULL,PennController,14,_Header_,Start,1726477770189,dGuz6BkjcDWCZEIRwqPNrQ,2,1006,1001,NULL
1726477781,d8504d6924602101afa696ab033395aa,PennController,15,0,experiment-filler,NULL,PennController,14,_Header_,End,1726477770189,dGuz6BkjcDWCZEIRwqPNrQ,2,1006,1001,NULL
# 17. Reading time.
# 18. Newline?.
# 19. Sentence (or sentence MD5).
# 20. Comments.
1726477781,d8504d6924602101afa696ab033395aa,PennController,15,0,experiment-filler,NULL,Controller-SelfPacedReadingParadigmSentence,SelfPacedReadingParadigmSentence,1,Bianca,1726477771145,dGuz6BkjcDWCZEIRwqPNrQ,2,1006,1001,29,0,Bianca*sammelte*Briefmarken%2C*bevor*sie diese*in einem Album*anordnete.,Any addtional parameters were appended as additional columns
1726477781,d8504d6924602101afa696ab033395aa,PennController,15,0,experiment-filler,NULL,Controller-SelfPacedReadingParadigmSentence,SelfPacedReadingParadigmSentence,2,sammelte,1726477771145,dGuz6BkjcDWCZEIRwqPNrQ,2,1006,1001,31,0,Bianca*sammelte*Briefmarken%2C*bevor*sie diese*in einem Album*anordnete.,Any addtional parameters were appended as additional columns
1726477781,d8504d6924602101afa696ab033395aa,PennController,15,0,experiment-filler,NULL,Controller-SelfPacedReadingParadigmSentence,SelfPacedReadingParadigmSentence,3,Briefmarken%2C,1726477771145,dGuz6BkjcDWCZEIRwqPNrQ,2,1006,1001,30,0,Bianca*sammelte*Briefmarken%2C*bevor*sie diese*in einem Album*anordnete.,Any addtional parameters were appended as additional columns
1726477781,d8504d6924602101afa696ab033395aa,PennController,15,0,experiment-filler,NULL,Controller-SelfPacedReadingParadigmSentence,SelfPacedReadingParadigmSentence,4,bevor,1726477771145,dGuz6BkjcDWCZEIRwqPNrQ,2,1006,1001,31,0,Bianca*sammelte*Briefmarken%2C*bevor*sie diese*in einem Album*anordnete.,Any addtional parameters were appended as additional columns
1726477781,d8504d6924602101afa696ab033395aa,PennController,15,0,experiment-filler,NULL,Controller-SelfPacedReadingParadigmSentence,SelfPacedReadingParadigmSentence,5,sie diese,1726477771145,dGuz6BkjcDWCZEIRwqPNrQ,2,1006,1001,30,0,Bianca*sammelte*Briefmarken%2C*bevor*sie diese*in einem Album*anordnete.,Any addtional parameters were appended as additional columns
1726477781,d8504d6924602101afa696ab033395aa,PennController,15,0,experiment-filler,NULL,Controller-SelfPacedReadingParadigmSentence,SelfPacedReadingParadigmSentence,6,in einem Album,1726477771145,dGuz6BkjcDWCZEIRwqPNrQ,2,1006,1001,30,0,Bianca*sammelte*Briefmarken%2C*bevor*sie diese*in einem Album*anordnete.,Any addtional parameters were appended as additional columns
1726477781,d8504d6924602101afa696ab033395aa,PennController,15,0,experiment-filler,NULL,Controller-SelfPacedReadingParadigmSentence,SelfPacedReadingParadigmSentence,7,anordnete.,1726477771145,dGuz6BkjcDWCZEIRwqPNrQ,2,1006,1001,29,0,Bianca*sammelte*Briefmarken%2C*bevor*sie diese*in einem Album*anordnete.,Any addtional parameters were appended as additional columns
# 17. Comments.
1726477781,d8504d6924602101afa696ab033395aa,PennController,15,0,experiment-filler,NULL,PennController,14,_Trial_,End,1726477771145,dGuz6BkjcDWCZEIRwqPNrQ,2,1006,1001,NULL
1726477781,d8504d6924602101afa696ab033395aa,PennController,9,0,experiment-item,NULL,PennController,8,_Trial_,Start,1726477771148,dGuz6BkjcDWCZEIRwqPNrQ,2,4,1,NULL
1726477781,d8504d6924602101afa696ab033395aa,PennController,9,0,experiment-item,NULL,PennController,8,_Header_,Start,1726477771148,dGuz6BkjcDWCZEIRwqPNrQ,2,4,1,NULL
1726477781,d8504d6924602101afa696ab033395aa,PennController,9,0,experiment-item,NULL,PennController,8,_Header_,End,1726477771148,dGuz6BkjcDWCZEIRwqPNrQ,2,4,1,NULL
# 17. Reading time.
# 18. Newline?.
# 19. Sentence (or sentence MD5).
# 20. Comments.
1726477781,d8504d6924602101afa696ab033395aa,PennController,9,0,experiment-item,NULL,Controller-SelfPacedReadingParadigmSentence,SelfPacedReadingParadigmSentence,1,Sophie,1726477772122,dGuz6BkjcDWCZEIRwqPNrQ,2,4,1,30,0,Sophie*war*freundlich%2C*um*die Eltern*stolz auf sie*zu machen.,Any addtional parameters were appended as additional columns
1726477781,d8504d6924602101afa696ab033395aa,PennController,9,0,experiment-item,NULL,Controller-SelfPacedReadingParadigmSentence,SelfPacedReadingParadigmSentence,2,war,1726477772122,dGuz6BkjcDWCZEIRwqPNrQ,2,4,1,30,0,Sophie*war*freundlich%2C*um*die Eltern*stolz auf sie*zu machen.,Any addtional parameters were appended as additional columns
1726477781,d8504d6924602101afa696ab033395aa,PennController,9,0,experiment-item,NULL,Controller-SelfPacedReadingParadigmSentence,SelfPacedReadingParadigmSentence,3,freundlich%2C,1726477772122,dGuz6BkjcDWCZEIRwqPNrQ,2,4,1,31,0,Sophie*war*freundlich%2C*um*die Eltern*stolz auf sie*zu machen.,Any addtional parameters were appended as additional columns
1726477781,d8504d6924602101afa696ab033395aa,PennController,9,0,experiment-item,NULL,Controller-SelfPacedReadingParadigmSentence,SelfPacedReadingParadigmSentence,4,um,1726477772122,dGuz6BkjcDWCZEIRwqPNrQ,2,4,1,31,0,Sophie*war*freundlich%2C*um*die Eltern*stolz auf sie*zu machen.,Any addtional parameters were appended as additional columns
1726477781,d8504d6924602101afa696ab033395aa,PennController,9,0,experiment-item,NULL,Controller-SelfPacedReadingParadigmSentence,SelfPacedReadingParadigmSentence,5,die Eltern,1726477772122,dGuz6BkjcDWCZEIRwqPNrQ,2,4,1,29,0,Sophie*war*freundlich%2C*um*die Eltern*stolz auf sie*zu machen.,Any addtional parameters were appended as additional columns
1726477781,d8504d6924602101afa696ab033395aa,PennController,9,0,experiment-item,NULL,Controller-SelfPacedReadingParadigmSentence,SelfPacedReadingParadigmSentence,6,stolz auf sie,1726477772122,dGuz6BkjcDWCZEIRwqPNrQ,2,4,1,30,0,Sophie*war*freundlich%2C*um*die Eltern*stolz auf sie*zu machen.,Any addtional parameters were appended as additional columns
1726477781,d8504d6924602101afa696ab033395aa,PennController,9,0,experiment-item,NULL,Controller-SelfPacedReadingParadigmSentence,SelfPacedReadingParadigmSentence,7,zu machen.,1726477772122,dGuz6BkjcDWCZEIRwqPNrQ,2,4,1,31,0,Sophie*war*freundlich%2C*um*die Eltern*stolz auf sie*zu machen.,Any addtional parameters were appended as additional columns
1726477781,d8504d6924602101afa696ab033395aa,PennController,9,0,experiment-item,NULL,Controller-SelfPacedReadingParadigmSentence,SelfPacedReadingParadigmSentence,1,Sophie,1726477772122,dGuz6BkjcDWCZEIRwqPNrQ,2,4,1,30,0,Sophie*war*freundlich%2C*um*die Eltern*stolz auf sie*zu machen.,Any addtional parameters were appended as additional columns
1726477781,d8504d6924602101afa696ab033395aa,PennController,9,0,experiment-item,NULL,Controller-SelfPacedReadingParadigmSentence,SelfPacedReadingParadigmSentence,2,war,1726477772122,dGuz6BkjcDWCZEIRwqPNrQ,2,4,1,30,0,Sophie*war*freundlich%2C*um*die Eltern*stolz auf sie*zu machen.,Any addtional parameters were appended as additional columns
1726477781,d8504d6924602101afa696ab033395aa,PennController,9,0,experiment-item,NULL,Controller-SelfPacedReadingParadigmSentence,SelfPacedReadingParadigmSentence,3,freundlich%2C,1726477772122,dGuz6BkjcDWCZEIRwqPNrQ,2,4,1,31,0,Sophie*war*freundlich%2C*um*die Eltern*stolz auf sie*zu machen.,Any addtional parameters were appended as additional columns
